time,ax,ay,az,wx,wy,wz
2022-02-17 5:48:14.8990 p.m.,-0.17,0.0,0.57,-0.07,-0.06,-0.02
2022-02-17 5:48:14.9090 p.m.,-0.01,0.04,0.0,0.0,0.07,-0.02
2022-02-17 5:48:14.9190 p.m.,0.24,0.01,-0.38,0.06,0.14,-0.01
2022-02-17 5:48:14.9290 p.m.,0.3,-0.1,-0.43,0.08,0.12,0.0
2022-02-17 5:48:14.9390 p.m.,0.23,-0.04,-0.2,0.05,0.05,-0.0
2022-02-17 5:48:14.9490 p.m.,0.09,0.0,0.1,-0.02,-0.03,-0.01
2022-02-17 5:48:14.9590 p.m.,-0.03,0.0,0.26,-0.07,-0.07,-0.01
2022-02-17 5:48:14.9690 p.m.,-0.12,0.05,0.2,-0.07,-0.07,-0.01
2022-02-17 5:48:14.9790 p.m.,-0.14,0.08,0.08,-0.08,-0.01,-0.0
2022-02-17 5:48:14.9890 p.m.,-0.09,0.06,-0.06,-0.03,0.03,0.0
2022-02-17 5:48:14.9990 p.m.,-0.05,0.04,-0.14,0.02,0.05,-0.0
2022-02-17 5:48:15.0090 p.m.,-0.04,-0.01,-0.07,0.05,0.05,-0.01
2022-02-17 5:48:15.0190 p.m.,-0.08,-0.04,0.03,0.06,0.05,-0.02
2022-02-17 5:48:15.0290 p.m.,-0.1,-0.04,0.08,0.05,0.03,-0.03
2022-02-17 5:48:15.0390 p.m.,-0.05,0.0,0.06,0.04,0.03,-0.03
2022-02-17 5:48:15.0490 p.m.,0.0,0.0,0.08,0.01,0.03,-0.02
2022-02-17 5:48:15.0590 p.m.,0.05,0.0,0.11,0.0,0.03,-0.02
2022-02-17 5:48:15.0690 p.m.,0.13,0.0,0.1,0.0,0.03,-0.01
2022-02-17 5:48:15.0790 p.m.,0.16,-0.04,0.11,0.0,0.03,-0.0
2022-02-17 5:48:15.0900 p.m.,0.15,0.0,0.09,0.0,0.02,-0.0
2022-02-17 5:48:15.0990 p.m.,0.11,0.06,0.06,-0.0,0.02,-0.0
2022-02-17 5:48:15.1100 p.m.,0.05,0.03,0.0,-0.01,0.02,-0.01
2022-02-17 5:48:15.1200 p.m.,-0.03,-0.01,-0.06,-0.02,0.03,-0.02
2022-02-17 5:48:15.1300 p.m.,-0.05,-0.02,-0.07,-0.01,0.04,-0.03
2022-02-17 5:48:15.1400 p.m.,-0.07,0.01,0.0,0.01,0.06,-0.03
2022-02-17 5:48:15.1500 p.m.,-0.13,-0.03,0.06,0.03,0.09,-0.02
2022-02-17 5:48:15.1600 p.m.,-0.14,-0.04,0.06,0.04,0.1,-0.02
2022-02-17 5:48:15.1700 p.m.,-0.04,0.01,0.12,0.06,0.08,-0.02
2022-02-17 5:48:15.1800 p.m.,-0.07,-0.06,0.17,0.08,0.05,-0.01
2022-02-17 5:48:15.1900 p.m.,-0.04,0.0,0.21,0.09,-0.02,0.0
2022-02-17 5:48:15.2000 p.m.,-0.09,0.03,0.28,0.11,-0.04,0.02
2022-02-17 5:48:15.2100 p.m.,-0.14,0.05,0.27,0.13,0.0,-0.0
2022-02-17 5:48:15.2200 p.m.,-0.17,-0.04,-0.02,0.13,0.03,-0.01
2022-02-17 5:48:15.2300 p.m.,-0.11,0.11,-0.23,0.11,0.06,-0.01
2022-02-17 5:48:15.2400 p.m.,-0.1,0.2,-0.23,0.09,0.11,-0.0
2022-02-17 5:48:15.2500 p.m.,-0.14,0.07,-0.24,0.1,0.17,0.01
2022-02-17 5:48:15.2540 p.m.,-0.03,0.08,-0.32,0.12,0.23,0.01
2022-02-17 5:48:15.2680 p.m.,-0.09,0.16,-0.36,0.12,0.27,-0.0
2022-02-17 5:48:15.2770 p.m.,-0.2092298213392496,0.09,-0.32,0.09,0.26,-0.01
2022-02-17 5:48:15.2870 p.m.,-0.21,0.09,-0.32,0.03,0.28,-0.01
2022-02-17 5:48:15.2970 p.m.,-0.42,0.17,-0.49,-0.03,0.29,-0.01
2022-02-17 5:48:15.3080 p.m.,-0.34,0.14,-0.57,-0.06,0.32,-0.01
2022-02-17 5:48:15.3170 p.m.,-0.34,0.14,-0.57,-0.05,0.36,0.05
2022-02-17 5:48:15.3270 p.m.,-0.47,0.34,-0.93,0.01,0.38,0.06
2022-02-17 5:48:15.3380 p.m.,-0.62,0.11,-0.98,0.07,0.45,0.04
2022-02-17 5:48:15.3470 p.m.,-0.62,0.11,-0.98,0.11,0.57,0.03
2022-02-17 5:48:15.3570 p.m.,-0.22,0.08,-1.24,0.19,0.55,0.05
2022-02-17 5:48:15.3680 p.m.,-0.39,0.1,-0.67,0.22,0.58,0.11
2022-02-17 5:48:15.3780 p.m.,-0.39,0.1,-0.67,0.21,0.54,0.16
2022-02-17 5:48:15.3880 p.m.,-0.4,0.05,-0.42,0.16,0.48,0.17
2022-02-17 5:48:15.3980 p.m.,-0.37,-0.22,-0.12,0.05,0.46,0.16
2022-02-17 5:48:15.4090 p.m.,-0.29,-0.27,-0.02,-0.09,0.42,0.13
2022-02-17 5:48:15.4180 p.m.,-0.35,-0.18,0.08,-0.24,0.35,0.15
2022-02-17 5:48:15.4280 p.m.,-0.35,-0.18,0.08,-0.36,0.32,0.2
2022-02-17 5:48:15.4380 p.m.,-0.27,0.01,-0.24,-0.45,0.33,0.27
2022-02-17 5:48:15.4480 p.m.,-0.27,0.01,-0.24,-0.5,0.39,0.32
2022-02-17 5:48:15.4580 p.m.,-0.15,0.12,-0.59,-0.5,0.5,0.36
2022-02-17 5:48:15.4680 p.m.,0.03,-0.05,-1.14,-0.49,0.61,0.35
2022-02-17 5:48:15.4780 p.m.,-0.07,-0.21,-1.22,-0.49,0.61,0.35
2022-02-17 5:48:15.4890 p.m.,-0.07,-0.21,-1.22,-0.47,0.64,0.27
2022-02-17 5:48:15.4980 p.m.,-0.12,-0.4,-1.2,-0.49,0.63,0.23
2022-02-17 5:48:15.5080 p.m.,-0.05,-0.49,-1.11,-0.49,0.63,0.23
2022-02-17 5:48:15.5180 p.m.,0.07,-0.56,-1.04,-0.53,0.6,0.17
2022-02-17 5:48:15.5280 p.m.,0.02,-0.44,-1.07,-0.54,0.58,0.18
2022-02-17 5:48:15.5380 p.m.,-0.05,-0.35,-1.03,-0.54,0.57,0.23
2022-02-17 5:48:15.5480 p.m.,-0.18,-0.25,-0.98,-0.54,0.57,0.3
2022-02-17 5:48:15.5580 p.m.,-0.15,-0.13,-0.89,-0.54,0.57,0.3
2022-02-17 5:48:15.5690 p.m.,-0.09,-0.14,-0.85,-0.51,0.56,0.33
2022-02-17 5:48:15.5780 p.m.,-0.16,-0.26,-0.77,-0.51,0.52,0.26
2022-02-17 5:48:15.5890 p.m.,-0.26,-0.64,-0.39,-0.52,0.47,0.19
2022-02-17 5:48:15.5990 p.m.,-0.26,-0.64,-0.39,-0.52,0.43,0.14
2022-02-17 5:48:15.6090 p.m.,-0.11,-0.64,-0.2,-0.49,0.38,0.11
2022-02-17 5:48:15.6180 p.m.,-0.08,-0.52,-0.17,-0.45,0.37,0.09
2022-02-17 5:48:15.6290 p.m.,-0.08,-0.52,-0.17,-0.4,0.41,0.07
2022-02-17 5:48:15.6390 p.m.,-0.02,-0.42,-0.4,-0.4,0.41,0.07
2022-02-17 5:48:15.6490 p.m.,0.1,-0.31,-0.69,-0.3,0.61,0.11
2022-02-17 5:48:15.6590 p.m.,0.16,-0.21,-0.98,-0.26,0.75,0.16
2022-02-17 5:48:15.6760 p.m.,0.11,-0.07,-0.89,-0.23,0.83,0.22
2022-02-17 5:48:15.6780 p.m.,0.03,-0.11,-0.52,-0.2,0.82,0.24
2022-02-17 5:48:15.6890 p.m.,-0.17,-0.27,-0.17,-0.2,0.7,0.21
2022-02-17 5:48:15.6990 p.m.,-0.36,-0.51,0.27,-0.24,0.53,0.12
2022-02-17 5:48:15.7100 p.m.,-0.31,-0.64,0.53,-0.3,0.36,0.03
2022-02-17 5:48:15.7190 p.m.,-0.31,-0.64,0.53,-0.34,0.25,-0.05
2022-02-17 5:48:15.7300 p.m.,0.07,-0.56,-0.06,-0.32,0.21,-0.1
2022-02-17 5:48:15.7400 p.m.,0.07,-0.56,-0.06,-0.26,0.29,-0.13
2022-02-17 5:48:15.7490 p.m.,0.2,-0.33,-1.38,-0.22,0.52,-0.1
2022-02-17 5:48:15.7600 p.m.,0.34,-0.16,-1.76,-0.19,0.81,-0.04
2022-02-17 5:48:15.7690 p.m.,0.5,-0.05,-1.87,-0.17,1.09,0.02
2022-02-17 5:48:15.7800 p.m.,0.4,-0.03,-1.74,-0.17,1.31,0.04
2022-02-17 5:48:15.7900 p.m.,0.4,-0.03,-1.74,-0.17,1.48,0.03
2022-02-17 5:48:15.8000 p.m.,0.16,-0.38,-1.05,-0.14,1.6,-0.02
2022-02-17 5:48:15.8100 p.m.,0.21,-0.6,-0.82,-0.07,1.66,-0.1
2022-02-17 5:48:15.8200 p.m.,0.2,-0.84,-0.78,0.07,1.66,-0.22
2022-02-17 5:48:15.8300 p.m.,0.2,-1.0,-0.82,0.22,1.56,-0.37
2022-02-17 5:48:15.8400 p.m.,0.17,-1.0,-0.82,0.33,1.47,-0.47
2022-02-17 5:48:15.8500 p.m.,0.0,-0.95,-0.85,0.4,1.5,-0.54
2022-02-17 5:48:15.8600 p.m.,0.31,-0.92,-1.46,0.43,1.63,-0.6
2022-02-17 5:48:15.8700 p.m.,0.54,-0.81,-1.79,0.42,1.83,-0.67
2022-02-17 5:48:15.8800 p.m.,0.47,-0.79,-1.79,0.36,1.99,-0.75
2022-02-17 5:48:15.8910 p.m.,0.47,-0.79,-1.79,0.26,2.08,-0.81
2022-02-17 5:48:15.9000 p.m.,0.21,-0.76,-1.08,0.15,2.16,-0.82
2022-02-17 5:48:15.9100 p.m.,0.21,-0.76,-1.08,0.01,2.14,-0.86
2022-02-17 5:48:15.9210 p.m.,0.03,-0.61,-0.29,-0.13,2.0,-0.9
2022-02-17 5:48:15.9310 p.m.,0.03,-0.61,-0.29,-0.23,1.79,-0.98
2022-02-17 5:48:15.9400 p.m.,0.06,-1.37,0.07,-0.23,1.66,-1.11
2022-02-17 5:48:15.9500 p.m.,0.06,-1.37,0.07,-0.12,1.67,-1.25
2022-02-17 5:48:15.9600 p.m.,0.25,-1.68,-0.72,0.09,1.86,-1.34
2022-02-17 5:48:15.9700 p.m.,0.66,-1.44,-2.54,0.3,2.26,-1.41
2022-02-17 5:48:15.9800 p.m.,0.66,-1.44,-2.54,0.36,2.72,-1.47
2022-02-17 5:48:15.9900 p.m.,0.45,-1.14,-2.66,0.36,3.06,-1.52
2022-02-17 5:48:16.0000 p.m.,0.41,-1.05,-1.75,0.33,3.17,-1.64
2022-02-17 5:48:16.0100 p.m.,0.16,-1.39,-0.95,0.28,3.04,-1.84
2022-02-17 5:48:16.0210 p.m.,-0.47,-2.2,0.92,0.23,2.76,-2.1
2022-02-17 5:48:16.0310 p.m.,-0.47,-2.2,0.92,0.23,2.52,-2.35
2022-02-17 5:48:16.0410 p.m.,-0.48,-2.46,1.59,0.42,2.53,-2.56
2022-02-17 5:48:16.0510 p.m.,-0.04,-2.64,1.35,0.74,2.74,-2.69
2022-02-17 5:48:16.0610 p.m.,0.46,-2.65,-0.05,0.74,2.74,-2.69
2022-02-17 5:48:16.0710 p.m.,-0.17,-1.91,-0.65,1.27,3.28,-2.98
2022-02-17 5:48:16.0880 p.m.,-0.82,-1.96,0.13,1.41,3.62,-3.12
2022-02-17 5:48:16.0890 p.m.,-0.82,-1.96,0.13,1.52,3.86,-3.25
2022-02-17 5:48:16.0990 p.m.,-1.27,-1.9,1.14,1.65,3.95,-3.41
2022-02-17 5:48:16.1100 p.m.,-1.27,-1.9,1.14,1.76,3.84,-3.57
2022-02-17 5:48:16.1200 p.m.,-1.97,-1.87,2.41,1.84,3.5,-3.7
2022-02-17 5:48:16.1300 p.m.,-1.97,-1.87,2.41,1.86,3.02,-3.82
2022-02-17 5:48:16.1410 p.m.,-3.64,-1.18,3.88,1.78,2.53,-3.91
2022-02-17 5:48:16.1510 p.m.,-3.64,-1.18,3.88,1.64,2.07,-3.96
2022-02-17 5:48:16.1610 p.m.,-4.28,-0.95,4.33,1.48,1.71,-3.93
2022-02-17 5:48:16.1710 p.m.,-4.43,-0.78,4.41,1.34,1.45,-3.82
2022-02-17 5:48:16.1810 p.m.,-4.52,-0.13,3.55,1.23,1.2,-3.67
2022-02-17 5:48:16.1910 p.m.,-4.72,0.15,3.12,1.16,0.94,-3.48
2022-02-17 5:48:16.2010 p.m.,-4.71,0.44,2.48,1.11,0.77,-3.23
2022-02-17 5:48:16.2110 p.m.,-4.71,0.44,2.48,1.1,0.77,-2.98
2022-02-17 5:48:16.2210 p.m.,-4.59,0.64,1.83,1.11,0.84,-2.72
2022-02-17 5:48:16.2310 p.m.,-4.59,0.75,1.19,1.14,0.99,-2.47
2022-02-17 5:48:16.2410 p.m.,-4.24,0.8061067977547646,0.1670818483829498,1.17,1.2,-2.27
2022-02-17 5:48:16.2520 p.m.,-3.96,0.8,0.16,1.19,1.37,-2.12
2022-02-17 5:48:16.2610 p.m.,-4.34,0.93,-0.09,1.18,1.47,-1.98
2022-02-17 5:48:16.2710 p.m.,-4.54,0.8726963514089585,0.16,1.14,1.48,-1.82
2022-02-17 5:48:16.2810 p.m.,-4.32,0.87,0.16,1.14,1.48,-1.82
2022-02-17 5:48:16.2920 p.m.,-3.91,0.72,0.28,1.03,1.54,-1.52
2022-02-17 5:48:16.3020 p.m.,-3.0932846689224243,0.36,0.62,0.91,1.38,-1.41
2022-02-17 5:48:16.3120 p.m.,-3.16,0.07,0.9,0.8,1.14,-1.37
2022-02-17 5:48:16.3220 p.m.,-3.16,0.07,0.9,0.74,0.88,-1.35
2022-02-17 5:48:16.3320 p.m.,-2.9,-0.31,0.64,0.73,0.6,-1.32
2022-02-17 5:48:16.3420 p.m.,-2.9,-0.1521115145087242,0.5346025948226452,0.78,0.39,-1.24
2022-02-17 5:48:16.3520 p.m.,-2.58,-0.16,0.53,0.78,0.39,-1.24
2022-02-17 5:48:16.3620 p.m.,-2.23,0.08,0.28,1.0,0.1,-1.03
2022-02-17 5:48:16.3720 p.m.,-1.88,0.24,-0.03,1.0,0.1,-1.03
2022-02-17 5:48:16.3820 p.m.,-1.56,0.69,-0.58,1.35,-0.05,-0.73
2022-02-17 5:48:16.3920 p.m.,-0.96,1.0,-1.03,1.35,-0.05,-0.73
2022-02-17 5:48:16.4030 p.m.,-0.36,1.47,-1.82,1.62,0.14,-0.33
2022-02-17 5:48:16.4120 p.m.,-0.36,1.47,-1.82,1.66,0.37,-0.23
2022-02-17 5:48:16.4220 p.m.,-0.17,0.63,-2.61,1.6,0.64,-0.22
2022-02-17 5:48:16.4320 p.m.,-0.03,0.03,-2.47,1.43,0.67,-0.34
2022-02-17 5:48:16.4420 p.m.,-0.29,-0.57,-1.1,1.21,0.48,-0.48
2022-02-17 5:48:16.4520 p.m.,-0.23,-0.26,-0.27,1.03,0.3,-0.59
2022-02-17 5:48:16.4620 p.m.,-0.23,-0.26,-0.27,0.91,0.18,-0.64
2022-02-17 5:48:16.4730 p.m.,-0.24,0.07,-0.52,0.91,0.18,-0.64
2022-02-17 5:48:16.4820 p.m.,-0.01,0.27,-0.66,1.29,-0.21,-0.59
2022-02-17 5:48:16.4920 p.m.,0.55,0.78,-0.78,1.45,-0.2,-0.51
2022-02-17 5:48:16.5020 p.m.,0.55,0.78,-0.78,1.5,-0.1,-0.43
2022-02-17 5:48:16.5120 p.m.,0.52,0.26,-1.0,1.52,-0.04,-0.38
2022-02-17 5:48:16.5230 p.m.,0.71,0.03,-0.51,1.5,-0.03,-0.38
2022-02-17 5:48:16.5340 p.m.,0.71,0.03,-0.51,1.43,-0.1,-0.41
2022-02-17 5:48:16.5430 p.m.,0.59,0.17,-0.14,1.3,-0.22,-0.45
2022-02-17 5:48:16.5520 p.m.,0.6,0.39,-0.07,1.01,-0.22,-0.46
2022-02-17 5:48:16.5630 p.m.,0.7,0.77,-0.25,0.69,-0.25,-0.42
2022-02-17 5:48:16.5730 p.m.,0.88,1.47,-0.82,0.34,-0.24,-0.36
2022-02-17 5:48:16.5830 p.m.,0.81,1.85,-1.03,0.02,-0.17,-0.3
2022-02-17 5:48:16.5930 p.m.,0.63,2.11,-1.17,-0.11,-0.16,-0.31
2022-02-17 5:48:16.6030 p.m.,0.3,2.05,-1.46,-0.13,-0.23,-0.39
2022-02-17 5:48:16.6130 p.m.,0.14,0.03,-1.04,-0.09,-0.35,-0.43
2022-02-17 5:48:16.6230 p.m.,0.14,0.03,-1.04,-0.0,-0.31,-0.3
2022-02-17 5:48:16.6330 p.m.,1.15,0.61,-0.41,0.23,-0.13,-0.18
2022-02-17 5:48:16.6430 p.m.,1.15,0.61,-0.41,0.5,0.0,-0.13
2022-02-17 5:48:16.6520 p.m.,0.32,0.49,-0.8,0.69,-0.04,-0.11
2022-02-17 5:48:16.6620 p.m.,-0.12,0.39,0.11,0.69,-0.18,-0.18
2022-02-17 5:48:16.6730 p.m.,-0.2476699286699295,0.34,0.48,0.56,-0.46,-0.29
2022-02-17 5:48:16.6830 p.m.,-0.25,0.34,0.48,0.36,-0.68,-0.39
2022-02-17 5:48:16.6940 p.m.,-0.03,0.37,0.7,0.16,-0.72,-0.43
2022-02-17 5:48:16.7030 p.m.,0.17,0.42,0.41,0.04,-0.61,-0.44
2022-02-17 5:48:16.7130 p.m.,0.37,0.74,-0.38,-0.02,-0.44,-0.47
2022-02-17 5:48:16.7230 p.m.,0.14,0.93,-1.15,-0.02,-0.44,-0.47
2022-02-17 5:48:16.7340 p.m.,-0.1,0.62,-1.03,0.09,-0.37,-0.6
2022-02-17 5:48:16.7440 p.m.,-0.28,0.33,-0.64,0.18,-0.44,-0.62
2022-02-17 5:48:16.7530 p.m.,0.02,0.47,-0.31,0.26,-0.38,-0.52
2022-02-17 5:48:16.7640 p.m.,0.02,0.47,-0.31,0.34,-0.21,-0.38
2022-02-17 5:48:16.7740 p.m.,0.17,0.9,-0.15,0.48,-0.09,-0.29
2022-02-17 5:48:16.7840 p.m.,-0.34,0.92,-0.23,0.59,-0.17,-0.27
2022-02-17 5:48:16.7940 p.m.,-0.39,0.82,0.01,0.59,-0.17,-0.27
2022-02-17 5:48:16.8040 p.m.,-0.39,0.82,0.01,0.4,-0.53,-0.41
2022-02-17 5:48:16.8140 p.m.,-0.05,0.65,0.6,0.3,-0.56,-0.48
2022-02-17 5:48:16.8240 p.m.,0.04,0.61,0.5,0.33,-0.46,-0.47
2022-02-17 5:48:16.8340 p.m.,0.22,0.56,0.47,0.43,-0.25,-0.45
2022-02-17 5:48:16.8440 p.m.,0.22,0.56,0.47,0.45,0.01,-0.45
2022-02-17 5:48:16.8540 p.m.,0.27,0.4,0.18,0.45,0.01,-0.45
2022-02-17 5:48:16.8640 p.m.,0.21,0.59,-0.22,0.26,0.13,-0.48
2022-02-17 5:48:16.8740 p.m.,0.02,0.82,-0.2,0.16,-0.08,-0.55
2022-02-17 5:48:16.8840 p.m.,-0.14,0.36,-0.06,0.14,-0.27,-0.58
2022-02-17 5:48:16.8940 p.m.,-0.03,0.53,-0.14,0.12,-0.25,-0.57
2022-02-17 5:48:16.9040 p.m.,-0.03,0.62,-0.78,0.22,-0.07,-0.56
2022-02-17 5:48:16.9140 p.m.,0.27,0.23,-1.02,0.38,0.13,-0.57
2022-02-17 5:48:16.9240 p.m.,0.27,0.23,-1.02,0.5,0.31,-0.59
2022-02-17 5:48:16.9340 p.m.,0.61,0.26,-0.96,0.55,0.44,-0.65
2022-02-17 5:48:16.9440 p.m.,0.6,0.56,-0.73,0.59,0.51,-0.75
2022-02-17 5:48:16.9540 p.m.,0.37,0.82,-0.39,0.61,0.5,-0.88
2022-02-17 5:48:16.9640 p.m.,-0.02,0.9,-0.16,0.54,0.52,-0.98
2022-02-17 5:48:16.9740 p.m.,0.02,0.88,0.02,0.44,0.56,-1.05
2022-02-17 5:48:16.9840 p.m.,0.23,1.04,-0.09,0.34,0.65,-1.11
2022-02-17 5:48:16.9940 p.m.,0.37,1.35,-0.38,0.22,0.72,-1.16
2022-02-17 5:48:17.0050 p.m.,0.63,1.61,-0.38,0.04,0.77,-1.22
2022-02-17 5:48:17.0150 p.m.,0.63,1.61,-0.38,-0.18,0.78,-1.28
2022-02-17 5:48:17.0250 p.m.,1.0,1.87,-0.21,-0.42,0.87,-1.38
2022-02-17 5:48:17.0350 p.m.,1.32,2.11,-0.2,-0.42,0.87,-1.38
2022-02-17 5:48:17.0450 p.m.,1.32,2.03,-0.35,-0.74,1.13,-1.44
2022-02-17 5:48:17.0550 p.m.,1.32,2.03,-0.35,-0.77,1.22,-1.45
2022-02-17 5:48:17.0650 p.m.,0.91,2.05,0.22,-0.7,1.14,-1.47
2022-02-17 5:48:17.0750 p.m.,0.15,1.22,1.13,-0.7,1.14,-1.47
2022-02-17 5:48:17.0860 p.m.,-0.58,0.98,2.44,-0.84,0.84,-1.62
2022-02-17 5:48:17.0950 p.m.,-1.69,-0.36,3.25,-1.13,0.64,-1.78
2022-02-17 5:48:17.1050 p.m.,-1.69,-0.36,3.25,-1.45,0.42,-1.9
2022-02-17 5:48:17.1150 p.m.,-1.68,-0.41,2.67,-1.68,0.23,-1.9
2022-02-17 5:48:17.1250 p.m.,-1.54,-0.14,1.47,-1.79,0.15,-1.84
2022-02-17 5:48:17.1350 p.m.,-1.65,0.48,0.2,-1.81,0.22,-1.69
2022-02-17 5:48:17.1450 p.m.,-1.32,1.02,-0.96,-1.77,0.37,-1.51
2022-02-17 5:48:17.1550 p.m.,-0.64,1.08,-1.72,-1.64,0.61,-1.25
2022-02-17 5:48:17.1650 p.m.,0.79,0.84,-1.52,-1.49,0.9,-0.92
2022-02-17 5:48:17.1750 p.m.,0.79,0.84,-1.52,-1.31,1.11,-0.65
2022-02-17 5:48:17.1860 p.m.,1.09,1.04,-0.24,-1.09,1.15,-0.58
2022-02-17 5:48:17.1960 p.m.,1.09,1.04,-0.24,-1.09,1.15,-0.58
2022-02-17 5:48:17.2060 p.m.,0.45,1.22,0.14,-0.82,0.76,-0.5
2022-02-17 5:48:17.2150 p.m.,0.45,1.22,0.14,-0.78,0.54,-0.29
2022-02-17 5:48:17.2260 p.m.,-0.59,0.57,-0.16,-0.78,0.57,-0.12
2022-02-17 5:48:17.2350 p.m.,0.09,-2.1,-0.5,-0.59,0.41,-0.21
2022-02-17 5:48:17.2460 p.m.,-0.76,-3.04,-1.09,-0.35,0.28,-0.29
2022-02-17 5:48:17.2560 p.m.,-0.76,-3.04,-1.09,-0.08,0.25,-0.26
2022-02-17 5:48:17.2660 p.m.,-0.25,-3.61,-1.28,0.21,0.3,-0.2
2022-02-17 5:48:17.2760 p.m.,-0.25,-3.61,-1.28,0.21,0.3,-0.2
2022-02-17 5:48:17.2860 p.m.,-0.35,-2.82,-1.44,0.67,-0.27,-0.26
2022-02-17 5:48:17.2960 p.m.,-0.3,-2.18,-0.87,0.6,-0.77,-0.68
2022-02-17 5:48:17.3060 p.m.,-1.08,1.15,0.42,0.35,-1.26,-1.23
2022-02-17 5:48:17.3160 p.m.,-1.08,1.15,0.42,0.35,-1.26,-1.23
2022-02-17 5:48:17.3260 p.m.,-0.83,0.94,0.35,-0.22,-2.17,-2.32
2022-02-17 5:48:17.3360 p.m.,-0.72,0.69,-0.01,-0.43,-2.58,-2.66
2022-02-17 5:48:17.3460 p.m.,-0.54,1.23,-0.06,-0.31,-1.77,-2.72
2022-02-17 5:48:17.3560 p.m.,-1.24,1.48,-2.21,0.54,1.62,-2.17
2022-02-17 5:48:17.3660 p.m.,-1.24,1.48,-2.21,0.66,1.64,-2.14
2022-02-17 5:48:17.3760 p.m.,-1.05,-0.45,1.54,0.51,1.51,-2.28
2022-02-17 5:48:17.3860 p.m.,0.14,1.64,2.7,0.34,1.44,-2.33
2022-02-17 5:48:17.3960 p.m.,0.69,2.49,-0.52,0.22,1.38,-2.2
2022-02-17 5:48:17.4080 p.m.,0.79,2.68,-0.29,0.15,1.22,-2.0
2022-02-17 5:48:17.4160 p.m.,0.81,2.38,0.85,0.0,0.8,-1.85
2022-02-17 5:48:17.4260 p.m.,0.81,2.38,0.85,-0.26,0.58,-1.72
2022-02-17 5:48:17.4370 p.m.,0.74,1.74,1.55,-0.26,0.58,-1.72
2022-02-17 5:48:17.4460 p.m.,0.91,1.94,0.61,-0.61,0.28,-1.51
2022-02-17 5:48:17.4570 p.m.,1.21,2.23,0.06,-0.58,0.15,-1.41
2022-02-17 5:48:17.4670 p.m.,1.67,2.35,0.04,-0.58,0.15,-1.242103934288025
2022-02-17 5:48:17.4770 p.m.,2.72,3.06,-0.31,-0.23,0.18,-1.08
2022-02-17 5:48:17.4870 p.m.,2.72,3.06,-0.31,-0.12,0.25,-0.96
2022-02-17 5:48:17.4970 p.m.,2.5,2.52,-0.09,-0.09,0.38,-0.88
2022-02-17 5:48:17.5070 p.m.,1.34,2.2,-0.14,-0.11,0.47,-0.85
2022-02-17 5:48:17.5170 p.m.,1.34,2.2,-0.14,-0.21,0.31,-0.81
2022-02-17 5:48:17.5270 p.m.,1.08,2.37,0.72,-0.33,0.17,-0.73
2022-02-17 5:48:17.5370 p.m.,1.08,2.37,0.72,-0.33,0.17,-0.73
2022-02-17 5:48:17.5470 p.m.,1.24,2.38,-0.15,-0.29,0.35,-0.51
2022-02-17 5:48:17.5570 p.m.,1.27,1.93,-1.08,-0.29,0.35,-0.51
2022-02-17 5:48:17.5670 p.m.,1.08,1.61,-0.24,-0.45,0.39,-0.31
2022-02-17 5:48:17.5770 p.m.,1.71,-0.09,0.48,-0.68,0.24,-0.41
2022-02-17 5:48:17.5870 p.m.,-0.58,0.33,2.39,-1.53,0.2,-0.71
2022-02-17 5:48:17.5970 p.m.,-0.58,0.33,2.39,-2.19,1.07,-0.76
2022-02-17 5:48:17.6070 p.m.,-0.39,2.85,0.61,-2.46,2.99,-0.7
2022-02-17 5:48:17.6170 p.m.,-0.39,2.85,0.61,-2.34,5.47,-0.66
2022-02-17 5:48:17.6270 p.m.,-0.02,2.14,-3.54,-1.76,7.65,-0.79
2022-02-17 5:48:17.6380 p.m.,-2.04,-1.7,-6.29,-0.7,9.19,-1.64
2022-02-17 5:48:17.6480 p.m.,-6.28,-12.14,-6.35,-0.88,9.41,-4.17
2022-02-17 5:48:17.6570 p.m.,-12.73,-29.34,1.31,-0.44,9.14,-6.52
2022-02-17 5:48:17.6680 p.m.,-9.94,-18.95,-0.89,-0.44,9.14,-6.52
2022-02-17 5:48:17.6790 p.m.,0.5195254030823708,0.17,-2.25,2.85,5.85,-3.66
2022-02-17 5:48:17.6870 p.m.,16.69,7.42,-2.67,3.95,4.03,0.1
2022-02-17 5:48:17.6960 p.m.,16.69,7.42,-2.67,3.95,4.03,0.1
2022-02-17 5:48:17.7060 p.m.,16.46,6.35,-1.75,3.67,2.97,1.08
2022-02-17 5:48:17.7170 p.m.,3.52,0.18,-0.24,3.13,1.75,0.15
2022-02-17 5:48:17.7270 p.m.,-3.15,-3.02,1.64,2.3,0.11,-0.62
2022-02-17 5:48:17.7380 p.m.,-4.63,-1.42,4.0,1.22,-1.28,-0.86
2022-02-17 5:48:17.7480 p.m.,-0.86,2.42,5.7,0.08,-1.98,-0.55
2022-02-17 5:48:17.7580 p.m.,-0.86,2.42,5.7,0.08,-1.98,-0.55
2022-02-17 5:48:17.7680 p.m.,1.57,1.64,4.64,-0.82,-2.1,-0.16
2022-02-17 5:48:17.7780 p.m.,1.21,-0.7,2.45,-0.68,-2.09,-0.12
2022-02-17 5:48:17.7880 p.m.,0.48,-1.56,0.96,-0.45,-2.03,-0.05
2022-02-17 5:48:17.7980 p.m.,0.4,-0.78,0.62,-0.24,-1.87,0.02
2022-02-17 5:48:17.8080 p.m.,0.38,0.06,0.28,-0.05,-1.62,0.05
2022-02-17 5:48:17.8180 p.m.,0.16,0.1,-0.13,0.11,-1.34,0.06
2022-02-17 5:48:17.8280 p.m.,0.16,0.1,-0.13,0.21,-1.07,0.07
2022-02-17 5:48:17.8390 p.m.,0.09,0.48,0.11,0.26,-0.86,0.07
2022-02-17 5:48:17.8480 p.m.,0.09,0.48,0.11,0.25,-0.75,0.05
2022-02-17 5:48:17.8580 p.m.,0.08,0.43,0.45,0.25,-0.75,0.05
2022-02-17 5:48:17.8690 p.m.,0.16,0.17,0.84,0.22,-0.67,0.01
2022-02-17 5:48:17.8790 p.m.,0.08,-0.22,0.38,0.22,-0.28,-0.07
2022-02-17 5:48:17.8890 p.m.,0.08,-0.22,0.38,0.26,-0.03,-0.11
2022-02-17 5:48:17.8980 p.m.,0.17,-0.05,0.0,0.3,0.17,-0.16
2022-02-17 5:48:17.9080 p.m.,0.03,0.0,-0.25,0.34,0.34,-0.19
2022-02-17 5:48:17.9190 p.m.,-0.12,-0.05,-0.32,0.36,0.43,-0.19
2022-02-17 5:48:17.9290 p.m.,-0.12,-0.05,-0.32,0.34,0.41,-0.18
2022-02-17 5:48:17.9390 p.m.,-0.12,-0.14,-0.09,0.2691920399665832,0.29,-0.13
2022-02-17 5:48:17.9480 p.m.,-0.19,-0.23,0.33,0.27,0.29,-0.13
2022-02-17 5:48:17.9600 p.m.,-0.12,-0.19,0.5,0.17,-0.08,-0.03
2022-02-17 5:48:17.9690 p.m.,0.01,-0.31,0.55,0.17,-0.08,-0.03
2022-02-17 5:48:17.9790 p.m.,-0.08,-0.46,0.57,0.15,-0.28,-0.02
2022-02-17 5:48:17.9890 p.m.,-0.27,0.0,-0.19,0.17,-0.44,0.03
2022-02-17 5:48:17.9990 p.m.,-0.25,0.09,-0.68,0.21,-0.39,0.05
2022-02-17 5:48:18.0090 p.m.,-0.25,0.09,-0.68,0.25,-0.29,0.06
2022-02-17 5:48:18.0190 p.m.,-0.28,0.03,-0.98,0.29,-0.16,0.06
2022-02-17 5:48:18.0290 p.m.,-0.34,-0.02,-1.17,0.28,-0.0,0.06
2022-02-17 5:48:18.0390 p.m.,-0.27,-0.24,-1.2,0.2,0.14,0.04
2022-02-17 5:48:18.0490 p.m.,-0.12,-0.37,-1.19,0.06,0.25,0.02
2022-02-17 5:48:18.0590 p.m.,-0.02,-0.5,-1.11,-0.07,0.29,-0.01
2022-02-17 5:48:18.0690 p.m.,0.19,-0.53,-0.98,-0.14,0.23,-0.02
2022-02-17 5:48:18.0790 p.m.,0.34,-0.38,-0.83,-0.16,0.09,0.01
2022-02-17 5:48:18.0900 p.m.,0.49,0.17,-0.24,-0.17,-0.13,0.04
2022-02-17 5:48:18.0990 p.m.,0.4725993047654629,0.2,0.13,-0.19,-0.37,0.07
2022-02-17 5:48:18.1100 p.m.,0.47,0.22,0.3403705161809921,-0.21,-0.55,0.08
2022-02-17 5:48:18.1200 p.m.,0.47,0.22,0.34,-0.23,-0.65,0.08
2022-02-17 5:48:18.1300 p.m.,0.31,0.19,0.31,-0.25,-0.78,0.02
2022-02-17 5:48:18.1390 p.m.,0.31,0.19,0.31,-0.29,-0.85,0.01
2022-02-17 5:48:18.1500 p.m.,0.39,0.02,0.6,-0.33,-0.85,-0.0
2022-02-17 5:48:18.1600 p.m.,0.39,0.02,0.6,-0.37,-0.83,-0.03
2022-02-17 5:48:18.1700 p.m.,0.25,-0.09,0.57,-0.38,-0.76,-0.05
2022-02-17 5:48:18.1800 p.m.,0.09,-0.1,0.56,-0.34,-0.61,-0.07
2022-02-17 5:48:18.1900 p.m.,-0.05,-0.05,0.42,-0.27,-0.43,-0.07
2022-02-17 5:48:18.2000 p.m.,-0.24,0.05,0.26,-0.2,-0.27,-0.08
2022-02-17 5:48:18.2100 p.m.,-0.64,-0.04,0.42,-0.13,-0.13,-0.08
2022-02-17 5:48:18.2200 p.m.,-0.71,0.01,0.53,-0.07,-0.01,-0.07
2022-02-17 5:48:18.2300 p.m.,-0.71,0.01,0.53,-0.01,0.07,-0.05
2022-02-17 5:48:18.2400 p.m.,-0.74,0.08,0.61,0.03,0.07,-0.03
2022-02-17 5:48:18.2500 p.m.,-0.71,0.07,0.76,0.07,0.04,-0.01
2022-02-17 5:48:18.2610 p.m.,-0.37,0.06,0.73,0.1,0.04,-0.0
2022-02-17 5:48:18.2700 p.m.,-0.22,0.06,0.47,0.1,0.04,-0.0
2022-02-17 5:48:18.2810 p.m.,-0.1099478271603584,0.03,0.27,0.16,0.09,-0.0
2022-02-17 5:48:18.2910 p.m.,-0.11,0.03,0.27,0.16,0.09,-0.0
2022-02-17 5:48:18.3000 p.m.,-0.04,0.03,0.19,0.18,0.07,-0.01
2022-02-17 5:48:18.3110 p.m.,0.0,0.07,0.14,0.18,0.05,-0.0
2022-02-17 5:48:18.3210 p.m.,0.05,0.11,0.14,0.17,0.02,-0.01
2022-02-17 5:48:18.3310 p.m.,0.07,0.07,0.11,0.16,-0.01,-0.0
2022-02-17 5:48:18.3410 p.m.,0.06,0.06,0.0,0.16,-0.03,-0.01
2022-02-17 5:48:18.3500 p.m.,0.08,0.06,0.0,0.15,-0.03,-0.01
2022-02-17 5:48:18.3610 p.m.,0.05,0.02,-0.08,0.14,-0.04,-0.01
2022-02-17 5:48:18.3710 p.m.,0.0,-0.02,-0.18,0.13,-0.04,-0.01
2022-02-17 5:48:18.3810 p.m.,0.0,-0.02,-0.18,0.11,-0.04,-0.01
2022-02-17 5:48:18.3900 p.m.,-0.02,-0.17,-0.24,0.1,-0.02,-0.01
2022-02-17 5:48:18.4010 p.m.,-0.03,-0.18,-0.29,0.1,-0.02,-0.01
2022-02-17 5:48:18.4120 p.m.,-0.04,-0.18,-0.3,0.07,0.0,0.0
2022-02-17 5:48:18.4210 p.m.,-0.04,-0.18,-0.3,0.05,0.0,0.0
2022-02-17 5:48:18.4310 p.m.,-0.04,-0.2,-0.29,0.04,-0.0,0.01
2022-02-17 5:48:18.4410 p.m.,-0.01,-0.23,-0.32,0.04,-0.0,0.01
2022-02-17 5:48:18.4510 p.m.,0.02,-0.21,-0.32,0.02,-0.01,0.01
2022-02-17 5:48:18.4610 p.m.,0.02,-0.21,-0.32,0.01,-0.01,0.01
2022-02-17 5:48:18.4710 p.m.,0.01,-0.14,-0.31,-0.02,-0.01,0.02
2022-02-17 5:48:18.4810 p.m.,0.01,0.03,-0.22,-0.05,-0.02,0.02
2022-02-17 5:48:18.4910 p.m.,0.07,0.05,-0.15,-0.07,-0.03,0.02
2022-02-17 5:48:18.5010 p.m.,0.07,0.05,-0.15,-0.09,-0.05,0.02
2022-02-17 5:48:18.5110 p.m.,0.15,0.06,-0.08,-0.1,-0.07,0.02
2022-02-17 5:48:18.5210 p.m.,0.25,0.05,-0.02,-0.1,-0.07,0.02
2022-02-17 5:48:18.5310 p.m.,0.33,0.07,0.04,-0.1,-0.1,0.0
2022-02-17 5:48:18.5410 p.m.,0.37,0.09,0.1,-0.11,-0.1,-0.0
2022-02-17 5:48:18.5510 p.m.,0.39,0.11,0.24,-0.11,-0.1,-0.02
2022-02-17 5:48:18.5610 p.m.,0.39,0.11,0.24,-0.12,-0.09,-0.03
2022-02-17 5:48:18.5720 p.m.,0.37,0.1,0.29,-0.12,-0.09,-0.03
2022-02-17 5:48:18.5820 p.m.,0.32,0.08,0.31,-0.1,-0.04,-0.06
2022-02-17 5:48:18.5910 p.m.,0.29,0.06,0.32,-0.09,-0.01,-0.06
2022-02-17 5:48:18.6010 p.m.,0.21,0.04,0.33,-0.06,0.03,-0.06
2022-02-17 5:48:18.6110 p.m.,0.01,0.03,0.33,-0.04,0.05,-0.05
2022-02-17 5:48:18.6220 p.m.,-0.09,0.01,0.32,-0.01,0.06,-0.05
2022-02-17 5:48:18.6310 p.m.,-0.09,0.01,0.32,0.03,0.07,-0.02
2022-02-17 5:48:18.6420 p.m.,-0.17,0.04,0.28,0.05,0.07,-0.01
2022-02-17 5:48:18.6520 p.m.,-0.14,0.02,0.19,0.07,0.07,0.01
2022-02-17 5:48:18.6620 p.m.,-0.07,-0.01,0.15,0.08,0.07,0.02
2022-02-17 5:48:18.6720 p.m.,-0.01,-0.02,0.08,0.09,0.07,0.02
2022-02-17 5:48:18.6820 p.m.,0.05,0.0,0.05,0.09,0.07,0.02
2022-02-17 5:48:18.6920 p.m.,0.05,0.0,0.05,0.09,0.07,0.02
2022-02-17 5:48:18.7020 p.m.,0.17,-0.01,0.01,0.08,0.06,0.01
2022-02-17 5:48:18.7120 p.m.,0.17,-0.01,0.01,0.06,0.05,-0.0
2022-02-17 5:48:18.7220 p.m.,0.22,-0.03,0.0,0.04,0.05,-0.01
2022-02-17 5:48:18.7320 p.m.,0.22,-0.03,0.0,0.04,0.05,-0.01
2022-02-17 5:48:18.7430 p.m.,0.18,0.02,-0.06,0.01,0.04,-0.02
2022-02-17 5:48:18.7520 p.m.,0.14,0.0,-0.05,-0.01,0.01,-0.02
2022-02-17 5:48:18.7620 p.m.,0.12,-0.02,-0.04,-0.02,-0.01,-0.02
2022-02-17 5:48:18.7720 p.m.,0.12,-0.02,-0.04,-0.02,-0.03,-0.01
2022-02-17 5:48:18.7830 p.m.,0.05,0.03,-0.07,-0.03,-0.05,-0.01
2022-02-17 5:48:18.7920 p.m.,0.05,0.03,-0.07,-0.03,-0.07,-0.0
2022-02-17 5:48:18.8020 p.m.,0.02,0.04,-0.06,-0.03,-0.08,-0.0
2022-02-17 5:48:18.8120 p.m.,0.05,0.0,-0.03,-0.03,-0.07,0.0
2022-02-17 5:48:18.8230 p.m.,0.07,-0.05,0.01,-0.03,-0.06,-0.0
2022-02-17 5:48:18.8330 p.m.,0.09,-0.06,0.04,-0.03,-0.05,-0.01
2022-02-17 5:48:18.8430 p.m.,0.08,-0.05,0.05,-0.03,-0.03,-0.01
2022-02-17 5:48:18.8530 p.m.,0.05,-0.04,0.08,-0.03,-0.02,-0.01
2022-02-17 5:48:18.8630 p.m.,0.01,0.02,0.09,-0.03,-0.01,-0.01
2022-02-17 5:48:18.8730 p.m.,0.01,0.02,0.09,-0.02,-0.0,-0.01
2022-02-17 5:48:18.8830 p.m.,0.0,0.01,0.12,-0.02,-0.0,-0.01
2022-02-17 5:48:18.8930 p.m.,0.01,0.02,0.14,-0.01,0.01,-0.01
2022-02-17 5:48:18.9030 p.m.,0.0,0.05,0.12,0.0,0.01,-0.0
2022-02-17 5:48:18.9160 p.m.,0.0,0.05,0.12,0.01,0.02,-0.0
2022-02-17 5:48:18.9260 p.m.,0.03,0.07,0.11,0.02,0.02,-0.0
2022-02-17 5:48:18.9360 p.m.,0.02,0.04,0.1,0.02,0.02,-0.0
2022-02-17 5:48:18.9460 p.m.,0.03,0.03,0.11,0.02,0.03,-0.01
2022-02-17 5:48:18.9560 p.m.,0.05,0.02,0.09,0.02,0.03,-0.01
2022-02-17 5:48:18.9660 p.m.,0.08,0.0,0.08,0.02,0.03,-0.01
2022-02-17 5:48:18.9760 p.m.,0.08,-0.01,0.07,0.02,0.02,-0.01
2022-02-17 5:48:18.9870 p.m.,0.07,0.0,0.05,0.02,0.01,-0.01
2022-02-17 5:48:18.9960 p.m.,0.06,0.01,0.03,0.02,0.0,-0.01
2022-02-17 5:48:19.0070 p.m.,0.03,-0.01,0.04,0.01,-0.0,-0.01
2022-02-17 5:48:19.0160 p.m.,0.01,0.0,0.01,0.0,-0.01,-0.01
2022-02-17 5:48:19.0270 p.m.,0.01,-0.01,0.0,-0.01,-0.02,-0.01
2022-02-17 5:48:19.0370 p.m.,0.0,-0.03,0.01,-0.0,-0.01,-0.01
2022-02-17 5:48:19.0470 p.m.,0.02,0.0,-0.01,-0.0,-0.01,-0.01
2022-02-17 5:48:19.0570 p.m.,0.02,0.0,-0.06,-0.0,-0.01,-0.01
2022-02-17 5:48:19.0670 p.m.,0.04,-0.01,-0.05,-0.01,-0.02,-0.01
2022-02-17 5:48:19.0770 p.m.,0.02,-0.02,0.0,-0.01,-0.02,-0.01
2022-02-17 5:48:19.0870 p.m.,0.0,-0.02,0.03,-0.01,-0.02,-0.01
2022-02-17 5:48:19.0970 p.m.,-0.02,-0.02,0.01,-0.02,-0.02,-0.01
2022-02-17 5:48:19.1070 p.m.,-0.01,-0.02,0.02,-0.01,-0.03,-0.01
2022-02-17 5:48:19.1170 p.m.,-0.02,-0.02,0.03,-0.01,-0.03,-0.0
2022-02-17 5:48:19.1270 p.m.,-0.02,0.0,0.02,-0.01,-0.03,-0.0
2022-02-17 5:48:19.1370 p.m.,-0.02,0.0,0.02,-0.0,-0.02,-0.01
2022-02-17 5:48:19.1470 p.m.,-0.02,0.0,0.01,-0.0,-0.01,-0.01
2022-02-17 5:48:19.1570 p.m.,-0.01,-0.02,0.03,0.0,0.01,-0.01
2022-02-17 5:48:19.1670 p.m.,0.0,-0.01,0.04,0.0,0.02,-0.01
2022-02-17 5:48:19.1770 p.m.,0.0,-0.01,0.03,0.0,0.02,-0.01
2022-02-17 5:48:19.1870 p.m.,-0.01,0.0,0.03,0.01,0.03,-0.01
2022-02-17 5:48:19.1970 p.m.,0.0,0.0,0.01,0.01,0.03,-0.01
2022-02-17 5:48:19.2070 p.m.,-0.01,-0.02,0.01,0.02,0.03,-0.01
2022-02-17 5:48:19.2170 p.m.,-0.01,-0.04,0.0,0.02,0.02,-0.01
2022-02-17 5:48:19.2270 p.m.,-0.02,-0.02,0.0,0.01,0.01,-0.01
2022-02-17 5:48:19.2380 p.m.,-0.01,-0.02,0.01,0.01,0.0,-0.0
2022-02-17 5:48:19.2470 p.m.,-0.01,-0.01,0.02,0.0,-0.01,-0.0
2022-02-17 5:48:19.2580 p.m.,0.01,-0.02,0.03,-0.0,-0.02,0.01
2022-02-17 5:48:19.2670 p.m.,0.02,0.0,0.04,0.0,-0.03,0.0
2022-02-17 5:48:19.2770 p.m.,0.05,0.03,0.02,-0.01,-0.03,-0.01
2022-02-17 5:48:19.2880 p.m.,0.08,0.01,0.03,-0.01,-0.03,-0.01
2022-02-17 5:48:19.2980 p.m.,0.08,-0.01,0.05,-0.01,-0.02,-0.01
2022-02-17 5:48:19.3080 p.m.,0.08,-0.01,0.06,-0.02,-0.0,-0.01
2022-02-17 5:48:19.3180 p.m.,0.05,0.0,0.06,-0.01,0.01,-0.02
2022-02-17 5:48:19.3280 p.m.,0.01,0.02,0.05,-0.0,0.01,-0.02
2022-02-17 5:48:19.3380 p.m.,-0.03,0.04,0.03,0.0,0.03,-0.02
2022-02-17 5:48:19.3480 p.m.,-0.05,0.03,0.02,0.01,0.04,-0.02
2022-02-17 5:48:19.3580 p.m.,-0.06,0.02,0.03,0.01,0.04,-0.02
2022-02-17 5:48:19.3680 p.m.,-0.06,-0.01,0.04,0.02,0.04,-0.01
2022-02-17 5:48:19.3780 p.m.,-0.06,-0.02,0.04,0.02,0.04,-0.01
2022-02-17 5:48:19.3880 p.m.,-0.03,-0.01,0.03,0.03,0.04,-0.01
2022-02-17 5:48:19.3980 p.m.,0.01,-0.01,0.02,0.04,0.03,-0.0
2022-02-17 5:48:19.4080 p.m.,0.05,-0.03,0.01,0.04,0.03,-0.0
2022-02-17 5:48:19.4180 p.m.,0.08,-0.04,-0.01,0.03,0.03,-0.01
2022-02-17 5:48:19.4280 p.m.,0.09,-0.03,0.01,0.02,0.02,-0.0
2022-02-17 5:48:19.4380 p.m.,0.09,-0.03,0.02,0.01,0.02,-0.0
2022-02-17 5:48:19.4480 p.m.,0.09,-0.02,0.02,0.0,0.01,-0.01
2022-02-17 5:48:19.4580 p.m.,0.09,-0.01,0.03,0.0,0.0,-0.01
2022-02-17 5:48:19.4680 p.m.,0.08,0.0,0.01,0.0,-0.0,-0.01
2022-02-17 5:48:19.4790 p.m.,0.09,0.0,0.01,0.0,-0.01,-0.01
2022-02-17 5:48:19.4880 p.m.,0.09,-0.01,0.01,0.0,-0.01,-0.01
2022-02-17 5:48:19.4980 p.m.,0.06,-0.01,0.0,-0.0,-0.01,-0.01
2022-02-17 5:48:19.5080 p.m.,0.04,-0.01,0.0,-0.0,-0.02,-0.01
2022-02-17 5:48:19.5190 p.m.,0.03,-0.01,0.03,-0.01,-0.02,-0.01
2022-02-17 5:48:19.5290 p.m.,0.03,-0.01,0.07,-0.01,-0.01,-0.0
2022-02-17 5:48:19.5390 p.m.,0.03,-0.01,0.07,-0.0,-0.01,-0.0
2022-02-17 5:48:19.5490 p.m.,0.05,-0.01,0.03,0.0,-0.01,-0.01
2022-02-17 5:48:19.5590 p.m.,0.05,0.0,0.04,0.01,-0.01,-0.01
2022-02-17 5:48:19.5690 p.m.,0.03,0.0,0.06,0.0,-0.01,-0.01
2022-02-17 5:48:19.5790 p.m.,0.01,0.01,0.07,0.0,0.01,-0.01
2022-02-17 5:48:19.5890 p.m.,0.0,0.02,0.06,0.0,0.02,-0.01
2022-02-17 5:48:19.5990 p.m.,-0.02,0.0,0.03,0.0,0.04,-0.02
2022-02-17 5:48:19.6090 p.m.,-0.01,0.0,0.03,0.01,0.03,-0.01
2022-02-17 5:48:19.6190 p.m.,0.0,0.0,0.03,0.01,0.03,-0.01
2022-02-17 5:48:19.6290 p.m.,0.0,-0.02,0.02,0.02,0.02,-0.01
2022-02-17 5:48:19.6390 p.m.,0.01,-0.02,0.02,0.02,0.02,-0.01
2022-02-17 5:48:19.6490 p.m.,0.01,-0.01,0.02,0.02,0.01,-0.0
2022-02-17 5:48:19.6590 p.m.,0.0,0.0,0.02,0.02,0.01,-0.0
2022-02-17 5:48:19.6690 p.m.,0.01,-0.01,0.0,0.01,0.01,-0.0
2022-02-17 5:48:19.6790 p.m.,0.03,-0.01,0.01,0.01,0.0,0.0
2022-02-17 5:48:19.6890 p.m.,0.06,-0.02,0.01,0.0,-0.0,-0.0
2022-02-17 5:48:19.6990 p.m.,0.08,-0.02,0.01,0.0,0.0,-0.01
2022-02-17 5:48:19.7090 p.m.,0.09,-0.01,0.01,-0.0,0.0,-0.01
2022-02-17 5:48:19.7190 p.m.,0.09,-0.01,0.01,-0.01,0.01,-0.01
2022-02-17 5:48:19.7290 p.m.,0.07,0.0,0.01,-0.02,0.0,-0.01
2022-02-17 5:48:19.7390 p.m.,0.04,-0.01,0.04,-0.02,-0.0,-0.02
2022-02-17 5:48:19.7490 p.m.,0.03,0.0,0.04,-0.01,-0.0,-0.01
2022-02-17 5:48:19.7590 p.m.,0.02,0.0,0.04,-0.01,-0.01,-0.01
2022-02-17 5:48:19.7690 p.m.,0.01,-0.01,0.02,0.0,-0.01,-0.0
2022-02-17 5:48:19.7790 p.m.,0.01,-0.01,0.03,0.0,-0.02,-0.0
2022-02-17 5:48:19.7890 p.m.,0.0,0.01,0.05,0.01,-0.01,0.0
2022-02-17 5:48:19.8000 p.m.,0.0,0.01,0.06,0.01,-0.01,0.0
2022-02-17 5:48:19.8100 p.m.,0.01,0.01,0.04,0.0,-0.0,-0.0
2022-02-17 5:48:19.8200 p.m.,0.03,0.0,0.05,0.0,0.0,-0.01
2022-02-17 5:48:19.8300 p.m.,0.05,0.0,0.06,0.0,0.01,-0.01
2022-02-17 5:48:19.8400 p.m.,0.06,0.01,0.05,0.01,0.01,-0.01
2022-02-17 5:48:19.8500 p.m.,0.06,-0.03,0.04,0.0,0.02,-0.01
2022-02-17 5:48:19.8600 p.m.,0.04,-0.02,0.04,0.0,0.01,-0.01
2022-02-17 5:48:19.8700 p.m.,0.02,-0.01,0.03,0.0,0.01,-0.01
2022-02-17 5:48:19.8800 p.m.,0.0,-0.01,0.02,0.0,0.01,-0.0
2022-02-17 5:48:19.8900 p.m.,0.01,0.01,0.0,0.01,0.01,-0.01
2022-02-17 5:48:19.9000 p.m.,0.01,-0.01,-0.01,0.01,0.02,-0.01
2022-02-17 5:48:19.9100 p.m.,0.02,-0.02,-0.01,0.01,0.01,-0.0
2022-02-17 5:48:19.9200 p.m.,0.03,-0.02,-0.01,0.01,0.01,-0.0
2022-02-17 5:48:19.9300 p.m.,0.02,-0.02,-0.02,0.01,0.01,-0.0
2022-02-17 5:48:19.9400 p.m.,0.01,-0.02,0.01,-0.0,-0.01,-0.0
2022-02-17 5:48:19.9500 p.m.,0.02,-0.02,0.01,-0.01,-0.01,-0.0
2022-02-17 5:48:19.9600 p.m.,0.02,-0.04,0.01,-0.01,-0.02,-0.0
2022-02-17 5:48:19.9700 p.m.,0.03,-0.05,0.02,-0.01,-0.03,-0.0
2022-02-17 5:48:19.9800 p.m.,0.04,0.0,0.04,-0.01,-0.03,-0.0
2022-02-17 5:48:19.9910 p.m.,0.04,0.02,0.05,-0.01,-0.04,-0.0
2022-02-17 5:48:20.0000 p.m.,0.06,0.03,0.05,-0.02,-0.04,-0.0
2022-02-17 5:48:20.0110 p.m.,0.06,0.03,0.08,-0.02,-0.04,-0.0
2022-02-17 5:48:20.0210 p.m.,0.07,0.02,0.09,-0.02,-0.03,-0.01
2022-02-17 5:48:20.0310 p.m.,0.07,0.01,0.1,-0.02,-0.01,-0.01
2022-02-17 5:48:20.0410 p.m.,0.05,0.0,0.1,-0.01,0.01,-0.02
2022-02-17 5:48:20.0510 p.m.,0.03,-0.01,0.09,0.0,0.02,-0.02
2022-02-17 5:48:20.0610 p.m.,-0.01,0.0,0.06,0.01,0.03,-0.02
2022-02-17 5:48:20.0710 p.m.,-0.06,0.01,0.05,0.01,0.03,-0.01
2022-02-17 5:48:20.0810 p.m.,-0.11,0.04,0.05,0.02,0.03,-0.01
2022-02-17 5:48:20.0910 p.m.,-0.13,0.04,0.06,0.02,0.03,0.0
2022-02-17 5:48:20.1010 p.m.,-0.11,0.0,0.06,0.03,0.03,0.01
2022-02-17 5:48:20.1110 p.m.,-0.05,-0.04,0.01,0.04,0.02,0.01
2022-02-17 5:48:20.1210 p.m.,0.02,-0.05,-0.01,0.05,0.02,0.01
2022-02-17 5:48:20.1310 p.m.,0.08,-0.05,-0.02,0.04,0.01,0.0
2022-02-17 5:48:20.1410 p.m.,0.09,-0.04,-0.02,0.03,0.01,0.0
2022-02-17 5:48:20.1510 p.m.,0.08,-0.01,-0.02,0.01,0.01,-0.0
2022-02-17 5:48:20.1610 p.m.,0.08,-0.01,-0.01,-0.01,0.01,-0.01
2022-02-17 5:48:20.1710 p.m.,0.09,-0.02,-0.01,-0.01,0.02,-0.01
2022-02-17 5:48:20.1810 p.m.,0.1,-0.02,-0.03,-0.01,0.02,-0.01
2022-02-17 5:48:20.1910 p.m.,0.11,-0.04,-0.05,-0.02,-0.01,-0.01
2022-02-17 5:48:20.2010 p.m.,0.08,-0.03,-0.02,-0.02,-0.02,-0.01
2022-02-17 5:48:20.2120 p.m.,0.06,-0.02,0.0,-0.02,-0.03,-0.01
2022-02-17 5:48:20.2220 p.m.,0.02,0.0,0.0,-0.02,-0.03,-0.01
2022-02-17 5:48:20.2320 p.m.,-0.01,0.0,0.02,-0.02,-0.03,-0.01
2022-02-17 5:48:20.2420 p.m.,-0.02,-0.02,0.05,-0.02,-0.03,-0.0
2022-02-17 5:48:20.2520 p.m.,-0.03,-0.01,0.06,-0.02,-0.03,-0.0
2022-02-17 5:48:20.2620 p.m.,-0.02,-0.01,0.06,-0.02,-0.03,-0.0
2022-02-17 5:48:20.2720 p.m.,0.0,0.0,0.1,-0.02,-0.03,-0.0
2022-02-17 5:48:20.2820 p.m.,0.01,0.0,0.11,-0.01,-0.02,-0.0
2022-02-17 5:48:20.2920 p.m.,0.02,0.01,0.11,-0.0,-0.01,-0.0
2022-02-17 5:48:20.3020 p.m.,0.03,0.0,0.12,-0.0,0.0,-0.01
2022-02-17 5:48:20.3120 p.m.,0.03,0.01,0.11,0.0,0.02,-0.01
2022-02-17 5:48:20.3220 p.m.,0.02,0.02,0.11,0.0,0.02,-0.01
2022-02-17 5:48:20.3320 p.m.,0.02,0.02,0.12,0.0,0.03,-0.01
2022-02-17 5:48:20.3420 p.m.,0.01,0.01,0.12,0.01,0.04,-0.01
2022-02-17 5:48:20.3520 p.m.,0.0,0.0,0.08,0.02,0.04,-0.01
2022-02-17 5:48:20.3620 p.m.,0.0,-0.01,0.06,0.03,0.04,-0.01
2022-02-17 5:48:20.3720 p.m.,0.0,-0.03,0.05,0.03,0.04,-0.0
2022-02-17 5:48:20.3820 p.m.,0.0,-0.03,0.01,0.02,0.03,-0.0
2022-02-17 5:48:20.3920 p.m.,-0.01,-0.02,0.01,0.02,0.03,-0.0
2022-02-17 5:48:20.4020 p.m.,0.0,-0.01,0.02,0.02,0.03,-0.0
2022-02-17 5:48:20.4130 p.m.,0.01,0.0,0.0,0.0,0.02,-0.0
2022-02-17 5:48:20.4220 p.m.,0.02,0.0,-0.02,0.01,0.02,-0.0
2022-02-17 5:48:20.4320 p.m.,0.04,0.0,-0.04,0.0,0.01,-0.01
2022-02-17 5:48:20.4420 p.m.,0.07,-0.03,-0.03,0.0,0.01,-0.01
2022-02-17 5:48:20.4530 p.m.,0.08,-0.03,-0.02,-0.01,0.0,-0.01
2022-02-17 5:48:20.4630 p.m.,0.08,-0.01,-0.01,-0.02,-0.0,-0.01
2022-02-17 5:48:20.4730 p.m.,0.06,-0.02,0.02,-0.03,-0.0,-0.01
2022-02-17 5:48:20.4830 p.m.,0.06,-0.03,0.02,-0.03,0.0,-0.01
2022-02-17 5:48:20.4930 p.m.,0.05,-0.01,0.0,-0.02,-0.0,-0.01
2022-02-17 5:48:20.5030 p.m.,0.04,-0.02,0.0,-0.02,-0.0,-0.01
2022-02-17 5:48:20.5130 p.m.,0.04,-0.03,0.03,-0.02,-0.01,-0.01
2022-02-17 5:48:20.5230 p.m.,0.02,-0.01,0.05,-0.02,-0.01,-0.01
2022-02-17 5:48:20.5330 p.m.,0.01,0.01,0.06,-0.02,-0.0,-0.01
2022-02-17 5:48:20.5430 p.m.,0.01,-0.01,0.08,-0.01,0.0,-0.01
2022-02-17 5:48:20.5530 p.m.,0.02,0.0,0.07,-0.0,0.0,-0.01
2022-02-17 5:48:20.5630 p.m.,0.04,0.02,0.06,-0.0,0.01,-0.01
2022-02-17 5:48:20.5730 p.m.,0.05,0.02,0.07,-0.0,0.01,-0.01
2022-02-17 5:48:20.5830 p.m.,0.04,0.01,0.06,0.0,0.02,-0.01
2022-02-17 5:48:20.5930 p.m.,0.03,0.02,0.07,0.0,0.03,-0.01
2022-02-17 5:48:20.6030 p.m.,0.03,0.03,0.07,0.0,0.03,-0.01
2022-02-17 5:48:20.6130 p.m.,0.03,0.01,0.07,0.01,0.03,-0.01
2022-02-17 5:48:20.6230 p.m.,0.04,-0.01,0.04,0.01,0.03,-0.01
2022-02-17 5:48:20.6330 p.m.,0.04,-0.02,0.03,0.01,0.02,-0.01
2022-02-17 5:48:20.6430 p.m.,0.03,-0.02,0.03,0.01,0.02,-0.01
2022-02-17 5:48:20.6530 p.m.,0.02,-0.01,0.01,0.01,0.02,-0.01
2022-02-17 5:48:20.6630 p.m.,0.02,-0.01,0.0,0.01,0.02,-0.01
2022-02-17 5:48:20.6740 p.m.,0.02,-0.01,-0.01,0.0,0.02,-0.01
2022-02-17 5:48:20.6840 p.m.,0.01,0.0,-0.05,0.0,0.02,-0.01
2022-02-17 5:48:20.6940 p.m.,0.03,-0.01,-0.03,-0.0,0.02,-0.01
2022-02-17 5:48:20.7040 p.m.,0.03,-0.02,-0.02,-0.01,0.02,-0.01
2022-02-17 5:48:20.7140 p.m.,0.01,-0.03,-0.02,-0.02,0.01,-0.01
2022-02-17 5:48:20.7240 p.m.,0.01,-0.04,-0.02,-0.02,0.01,-0.01
2022-02-17 5:48:20.7340 p.m.,0.03,-0.05,0.0,-0.01,-0.0,-0.0
2022-02-17 5:48:20.7440 p.m.,0.04,-0.01,0.0,-0.01,-0.02,-0.0
2022-02-17 5:48:20.7540 p.m.,0.04,0.02,0.0,-0.01,-0.03,-0.0
2022-02-17 5:48:20.7640 p.m.,0.04,0.02,0.02,-0.01,-0.03,-0.0
2022-02-17 5:48:20.7740 p.m.,0.06,-0.01,0.03,-0.02,-0.02,-0.01
2022-02-17 5:48:20.7840 p.m.,0.05,-0.02,0.05,-0.02,-0.01,-0.01
2022-02-17 5:48:20.7940 p.m.,0.06,-0.03,0.05,-0.02,-0.0,-0.01
2022-02-17 5:48:20.8040 p.m.,0.05,-0.02,0.06,-0.02,0.01,-0.02
2022-02-17 5:48:20.8140 p.m.,0.04,0.0,0.05,-0.01,0.02,-0.01
2022-02-17 5:48:20.8240 p.m.,0.02,0.02,0.03,0.01,0.02,-0.01
2022-02-17 5:48:20.8340 p.m.,-0.01,0.02,0.01,0.01,0.02,-0.01
2022-02-17 5:48:20.8440 p.m.,-0.06,0.02,0.01,0.02,0.03,-0.01
2022-02-17 5:48:20.8540 p.m.,-0.09,0.03,0.01,0.01,0.03,-0.0
2022-02-17 5:48:20.8640 p.m.,-0.09,0.02,0.02,0.01,0.03,0.0
2022-02-17 5:48:20.8740 p.m.,-0.05,-0.01,0.03,0.02,0.03,0.0
2022-02-17 5:48:20.8840 p.m.,0.0,-0.03,0.01,0.02,0.03,0.0
2022-02-17 5:48:20.8940 p.m.,0.06,-0.04,-0.02,0.02,0.02,-0.0
2022-02-17 5:48:20.9050 p.m.,0.09,-0.03,-0.03,0.02,0.02,-0.01
2022-02-17 5:48:20.9150 p.m.,0.1,-0.03,-0.03,0.01,0.02,-0.01
2022-02-17 5:48:20.9250 p.m.,0.09,-0.04,-0.02,-0.01,0.02,-0.01
2022-02-17 5:48:20.9350 p.m.,0.07,-0.02,-0.01,-0.01,0.02,-0.01
2022-02-17 5:48:20.9450 p.m.,0.06,-0.01,-0.01,-0.02,0.01,-0.02
2022-02-17 5:48:20.9550 p.m.,0.07,-0.02,-0.02,-0.02,0.0,-0.02
2022-02-17 5:48:20.9650 p.m.,0.06,-0.02,-0.03,-0.02,0.0,-0.02
2022-02-17 5:48:20.9750 p.m.,0.03,-0.01,-0.03,-0.01,-0.02,-0.01
2022-02-17 5:48:20.9850 p.m.,0.02,0.0,0.0,-0.02,-0.02,-0.01
2022-02-17 5:48:20.9950 p.m.,-0.01,0.0,0.01,-0.02,-0.03,-0.0
2022-02-17 5:48:21.0050 p.m.,-0.03,0.01,0.03,-0.01,-0.03,-0.0
2022-02-17 5:48:21.0150 p.m.,-0.03,0.01,0.06,-0.01,-0.03,0.0
2022-02-17 5:48:21.0250 p.m.,0.01,0.0,0.08,-0.0,-0.03,-0.0
2022-02-17 5:48:21.0350 p.m.,0.03,0.0,0.06,0.01,-0.02,-0.0
2022-02-17 5:48:21.0450 p.m.,0.04,0.01,0.06,0.01,-0.01,-0.01
2022-02-17 5:48:21.0550 p.m.,0.05,0.01,0.05,0.01,0.0,-0.01
2022-02-17 5:48:21.0650 p.m.,0.05,0.0,0.07,0.01,0.02,-0.01
2022-02-17 5:48:21.0750 p.m.,0.03,0.01,0.07,0.01,0.03,-0.01
2022-02-17 5:48:21.0850 p.m.,0.01,0.01,0.04,0.01,0.03,-0.01
2022-02-17 5:48:21.0950 p.m.,-0.01,0.0,0.03,0.01,0.02,-0.01
2022-02-17 5:48:21.1050 p.m.,-0.02,-0.01,0.04,0.02,0.02,-0.01
2022-02-17 5:48:21.1150 p.m.,-0.02,0.0,0.02,0.03,0.02,-0.01
2022-02-17 5:48:21.1250 p.m.,-0.01,0.0,-0.02,0.03,0.01,-0.0
2022-02-17 5:48:21.1360 p.m.,0.0,-0.01,-0.03,0.03,0.01,-0.0
2022-02-17 5:48:21.1460 p.m.,0.01,-0.02,-0.02,0.02,0.01,-0.0
2022-02-17 5:48:21.1550 p.m.,0.01,-0.03,-0.02,0.01,0.0,-0.0
2022-02-17 5:48:21.1650 p.m.,0.03,-0.02,-0.03,0.0,0.0,-0.01
2022-02-17 5:48:21.1760 p.m.,0.04,-0.02,-0.04,0.0,-0.0,-0.0
2022-02-17 5:48:21.1860 p.m.,0.04,-0.01,-0.05,0.0,-0.01,-0.01
2022-02-17 5:48:21.1960 p.m.,0.04,-0.01,-0.05,-0.0,-0.01,-0.01
2022-02-17 5:48:21.2060 p.m.,0.05,-0.03,-0.05,-0.01,-0.01,-0.01
2022-02-17 5:48:21.2160 p.m.,0.04,-0.04,-0.04,-0.02,-0.01,-0.01
2022-02-17 5:48:21.2260 p.m.,0.01,-0.03,-0.01,-0.02,-0.02,-0.01
2022-02-17 5:48:21.2360 p.m.,-0.01,-0.01,0.0,-0.02,-0.02,-0.0
2022-02-17 5:48:21.2460 p.m.,0.0,0.0,0.0,-0.01,-0.02,-0.0
2022-02-17 5:48:21.2560 p.m.,0.0,0.01,0.01,-0.0,-0.02,-0.0
2022-02-17 5:48:21.2660 p.m.,0.0,0.0,0.02,0.0,-0.02,-0.0
2022-02-17 5:48:21.2760 p.m.,0.02,0.0,0.03,0.0,-0.02,-0.0
2022-02-17 5:48:21.2860 p.m.,0.02,-0.01,0.04,-0.0,-0.01,-0.01
2022-02-17 5:48:21.2960 p.m.,0.02,-0.01,0.07,0.0,-0.0,-0.01
2022-02-17 5:48:21.3060 p.m.,0.01,0.02,0.06,0.01,0.0,-0.01
2022-02-17 5:48:21.3160 p.m.,0.01,0.02,0.06,0.01,0.0,-0.01
2022-02-17 5:48:21.3260 p.m.,0.03,0.0,0.07,0.01,0.01,-0.01
2022-02-17 5:48:21.3360 p.m.,0.04,-0.01,0.07,0.02,0.01,-0.01
2022-02-17 5:48:21.3460 p.m.,0.05,-0.01,0.05,0.02,0.02,-0.01
2022-02-17 5:48:21.3560 p.m.,0.03,0.0,0.03,0.02,0.01,-0.01
2022-02-17 5:48:21.3660 p.m.,0.0,0.02,0.03,0.02,0.01,-0.0
2022-02-17 5:48:21.3760 p.m.,0.0,0.02,0.04,0.02,0.02,-0.0
2022-02-17 5:48:21.3870 p.m.,0.01,0.01,0.01,0.02,0.02,-0.01
2022-02-17 5:48:21.3960 p.m.,0.01,-0.01,-0.01,0.03,0.02,-0.01
2022-02-17 5:48:21.4060 p.m.,0.04,-0.02,-0.02,0.03,0.02,-0.01
2022-02-17 5:48:21.4170 p.m.,0.04,-0.02,-0.02,0.02,0.01,-0.01
2022-02-17 5:48:21.4260 p.m.,0.04,-0.01,0.01,0.01,0.01,-0.01
2022-02-17 5:48:21.4370 p.m.,0.02,0.0,0.01,0.01,0.0,-0.01
2022-02-17 5:48:21.4470 p.m.,0.0,-0.01,-0.01,0.0,-0.01,-0.01
2022-02-17 5:48:21.4570 p.m.,0.02,-0.03,-0.01,0.01,-0.01,-0.01
2022-02-17 5:48:21.4670 p.m.,0.03,-0.03,0.0,0.01,-0.02,-0.0
2022-02-17 5:48:21.4770 p.m.,0.06,-0.03,0.0,0.01,-0.02,-0.0
2022-02-17 5:48:21.4870 p.m.,0.08,-0.02,0.01,0.0,-0.02,-0.01
2022-02-17 5:48:21.4970 p.m.,0.08,-0.02,0.02,0.0,-0.02,-0.01
2022-02-17 5:48:21.5070 p.m.,0.07,0.0,0.01,-0.01,-0.03,-0.02
2022-02-17 5:48:21.5170 p.m.,0.06,0.0,0.05,-0.01,-0.03,-0.02
2022-02-17 5:48:21.5270 p.m.,0.04,-0.02,0.08,-0.01,-0.01,-0.02
2022-02-17 5:48:21.5370 p.m.,0.04,-0.01,0.04,-0.01,-0.01,-0.01
2022-02-17 5:48:21.5470 p.m.,0.03,-0.01,0.01,0.0,-0.01,-0.02
2022-02-17 5:48:21.5570 p.m.,0.03,-0.02,0.02,0.01,-0.01,-0.01
2022-02-17 5:48:21.5670 p.m.,0.01,-0.01,0.02,0.01,-0.0,-0.02
2022-02-17 5:48:21.5770 p.m.,-0.02,-0.01,0.04,0.01,-0.0,-0.01
2022-02-17 5:48:21.5870 p.m.,-0.03,0.02,0.06,0.0,-0.0,-0.01
2022-02-17 5:48:21.5970 p.m.,0.01,0.05,0.07,-0.0,-0.0,-0.01
2022-02-17 5:48:21.6080 p.m.,0.06,0.06,0.07,0.0,-0.0,-0.01
2022-02-17 5:48:21.6180 p.m.,0.12,0.09,0.05,0.0,0.01,-0.01
2022-02-17 5:48:21.6280 p.m.,0.18,0.11,0.03,0.0,0.02,-0.02
2022-02-17 5:48:21.6380 p.m.,0.22,0.1,0.03,0.01,0.03,-0.03
2022-02-17 5:48:21.6480 p.m.,0.27,0.04,0.03,0.01,0.05,-0.04
2022-02-17 5:48:21.6580 p.m.,0.35,0.03,0.02,0.01,0.05,-0.05
2022-02-17 5:48:21.6680 p.m.,0.43,0.04,0.03,0.01,0.05,-0.05
2022-02-17 5:48:21.6780 p.m.,0.5,0.08,0.09,-0.01,0.05,-0.07
2022-02-17 5:48:21.6880 p.m.,0.53,0.14,0.11,-0.02,0.07,-0.08
2022-02-17 5:48:21.6980 p.m.,0.49,0.19,0.04,-0.02,0.1,-0.1
2022-02-17 5:48:21.7080 p.m.,0.47,0.2,-0.03,-0.02,0.12,-0.11
2022-02-17 5:48:21.7180 p.m.,0.44,0.15,-0.05,-0.02,0.15,-0.12
2022-02-17 5:48:21.7280 p.m.,0.4,0.12,-0.07,-0.01,0.17,-0.11
2022-02-17 5:48:21.7380 p.m.,0.36,0.11,-0.09,0.01,0.19,-0.11
2022-02-17 5:48:21.7480 p.m.,0.33,0.1,-0.14,0.03,0.21,-0.1
2022-02-17 5:48:21.7580 p.m.,0.29,0.1,-0.2,0.03,0.21,-0.09
2022-02-17 5:48:21.7680 p.m.,0.25,0.09,-0.24,0.03,0.2,-0.07
2022-02-17 5:48:21.7780 p.m.,0.22,0.06,-0.28,0.01,0.17,-0.04
2022-02-17 5:48:21.7880 p.m.,0.2,0.03,-0.31,-0.04,0.13,-0.02
2022-02-17 5:48:21.7980 p.m.,0.2,0.0,-0.38,-0.09,0.09,-0.0
2022-02-17 5:48:21.8090 p.m.,0.22,-0.07,-0.51,-0.11,0.05,0.01
2022-02-17 5:48:21.8180 p.m.,0.28,-0.1,-0.63,-0.09,0.0,0.02
2022-02-17 5:48:21.8290 p.m.,0.37,-0.07,-0.69,-0.09,0.0,0.02
2022-02-17 5:48:21.8380 p.m.,0.51,-0.01,-0.69,0.0,-0.1,0.04
2022-02-17 5:48:21.8490 p.m.,0.63,0.04,-0.62,0.05,-0.16,0.03
2022-02-17 5:48:21.8580 p.m.,0.65,0.1,-0.51,0.08,-0.23,0.04
2022-02-17 5:48:21.8690 p.m.,0.59,0.14,-0.32,0.09,-0.22,0.06
2022-02-17 5:48:21.8790 p.m.,0.67,0.19,-0.21,0.1,-0.18,0.06
2022-02-17 5:48:21.8890 p.m.,0.67,0.16,-0.32,0.09,-0.14,0.05
2022-02-17 5:48:21.8990 p.m.,0.58,0.12,-0.3,0.08,-0.09,0.04
2022-02-17 5:48:21.9090 p.m.,0.57,0.11,-0.24,0.08,-0.03,0.03
2022-02-17 5:48:21.9190 p.m.,0.57,0.05,-0.21,0.08,0.03,0.03
2022-02-17 5:48:21.9290 p.m.,0.56,0.06,-0.24,0.08,0.08,0.03
2022-02-17 5:48:21.9390 p.m.,0.57,0.1,-0.29,0.08,0.11,0.03
2022-02-17 5:48:21.9490 p.m.,0.56,0.11,-0.29,0.09,0.11,0.03
2022-02-17 5:48:21.9590 p.m.,0.53,0.11,-0.26,0.1,0.11,0.04
2022-02-17 5:48:21.9690 p.m.,0.46,0.1,-0.28,0.1,0.1,0.05
2022-02-17 5:48:21.9790 p.m.,0.39,0.1,-0.34,0.11,0.08,0.08
2022-02-17 5:48:21.9890 p.m.,0.36,0.1,-0.39,0.12,0.08,0.1
2022-02-17 5:48:21.9990 p.m.,0.31,0.11,-0.37,0.15,0.07,0.13
2022-02-17 5:48:22.0090 p.m.,0.2,0.01,-0.39,0.19,0.06,0.16
2022-02-17 5:48:22.0190 p.m.,0.15,-0.03,-0.39,0.21,0.03,0.19
2022-02-17 5:48:22.0290 p.m.,0.2,-0.07,-0.34,0.22,-0.02,0.22
2022-02-17 5:48:22.0390 p.m.,0.24,-0.14,-0.21,0.21,-0.07,0.24
2022-02-17 5:48:22.0490 p.m.,0.25,-0.14,-0.14,0.2,-0.09,0.24
2022-02-17 5:48:22.0590 p.m.,0.19,-0.04,-0.09,0.2,-0.09,0.24
2022-02-17 5:48:22.0690 p.m.,0.09,0.05,-0.11,0.18,-0.09,0.25
2022-02-17 5:48:22.0790 p.m.,0.03,0.12,-0.03,0.09,-0.05,0.21
2022-02-17 5:48:22.0890 p.m.,-0.07,0.16,0.13,0.03,-0.04,0.25
2022-02-17 5:48:22.1000 p.m.,-0.21,0.28,0.28,-0.02,-0.01,0.16
2022-02-17 5:48:22.1100 p.m.,-0.38,0.27,0.38,-0.06,0.03,0.18
2022-02-17 5:48:22.1200 p.m.,-0.44,0.11,0.39,-0.09,0.08,0.08
2022-02-17 5:48:22.1300 p.m.,-0.47,-0.05,0.32,-0.13,0.13,0.12
2022-02-17 5:48:22.1400 p.m.,-0.53,-0.23,0.3,-0.18,0.18,0.03
2022-02-17 5:48:22.1500 p.m.,-0.65,-0.36,0.34,-0.24,0.23,0.11
2022-02-17 5:48:22.1600 p.m.,-0.76,-0.42,0.37,-0.24,0.23,0.11
2022-02-17 5:48:22.1700 p.m.,-0.87,-0.4,0.32,-0.23,0.27,0.23
2022-02-17 5:48:22.1800 p.m.,-0.86,-0.46,0.27,-0.1,0.24,0.26
2022-02-17 5:48:22.1900 p.m.,-0.61,-0.44,-0.1,0.04,0.15,0.39
2022-02-17 5:48:22.2000 p.m.,-0.46,-0.43,-0.38,0.13,-0.01,0.34
2022-02-17 5:48:22.2100 p.m.,-0.59,-0.33,-0.4,0.16,-0.15,0.44
2022-02-17 5:48:22.2200 p.m.,-0.6,-0.2,-0.37,0.14,-0.32,0.33
2022-02-17 5:48:22.2300 p.m.,-0.6,-0.23,-0.41,0.07,-0.45,0.4
2022-02-17 5:48:22.2400 p.m.,-0.57,-0.19,-0.47,0.02,-0.53,0.34
2022-02-17 5:48:22.2500 p.m.,-0.42,-0.16,-0.66,0.04,-0.58,0.47
2022-02-17 5:48:22.2600 p.m.,-0.24,-0.05,-0.89,0.12,-0.63,0.42
2022-02-17 5:48:22.2700 p.m.,-0.19,0.18,-1.09,0.12,-0.63,0.42
2022-02-17 5:48:22.2800 p.m.,-0.2,0.33,-1.21,0.23,-0.67,0.51
2022-02-17 5:48:22.2910 p.m.,-0.29,0.21,-1.13,0.39,-0.77,0.41
2022-02-17 5:48:22.3000 p.m.,-0.33,0.07,-1.01,0.41,-0.79,0.25
2022-02-17 5:48:22.3110 p.m.,-0.41,-0.1,-0.91,0.39,-0.77,0.27
2022-02-17 5:48:22.3210 p.m.,-0.59,-0.25,-0.84,0.35,-0.73,0.13
2022-02-17 5:48:22.3310 p.m.,-0.94,-0.26,-0.79,0.3,-0.65,0.2
2022-02-17 5:48:22.3410 p.m.,-1.16,-0.23,-0.85,0.27,-0.55,0.12
2022-02-17 5:48:22.3510 p.m.,-1.33,-0.16,-0.97,0.26,-0.45,0.23
2022-02-17 5:48:22.3610 p.m.,-1.42,-0.01,-1.12,0.27,-0.35,0.18
2022-02-17 5:48:22.3710 p.m.,-1.5,0.08,-1.26,0.32,-0.27,0.3
2022-02-17 5:48:22.3810 p.m.,-1.41,0.11,-1.38,0.38,-0.22,0.24
2022-02-17 5:48:22.3910 p.m.,-1.25,0.05,-1.43,0.43,-0.22,0.36
2022-02-17 5:48:22.4010 p.m.,-0.95,0.0,-1.38,0.49,-0.26,0.31
2022-02-17 5:48:22.4110 p.m.,-0.68,0.03,-1.29,0.53,-0.34,0.4
2022-02-17 5:48:22.4210 p.m.,-0.41,0.06,-1.16,0.55,-0.43,0.31
2022-02-17 5:48:22.4310 p.m.,-0.29,0.01,-1.02,0.55,-0.52,0.38
2022-02-17 5:48:22.4410 p.m.,-0.02,0.04,-0.91,0.53,-0.64,0.26
2022-02-17 5:48:22.4510 p.m.,0.08,0.01,-0.75,0.49,-0.74,0.27
2022-02-17 5:48:22.4610 p.m.,0.14,-0.04,-0.59,0.44,-0.79,0.2
2022-02-17 5:48:22.4710 p.m.,0.18,0.04,-0.59,0.39,-0.77,0.15
2022-02-17 5:48:22.4810 p.m.,0.04,0.13,-0.73,0.34,-0.7,0.1
2022-02-17 5:48:22.4910 p.m.,-0.06,0.02,-0.89,0.29,-0.61,0.07
2022-02-17 5:48:22.5010 p.m.,-0.14,-0.06,-1.0,0.27,-0.52,0.05
2022-02-17 5:48:22.5110 p.m.,-0.23,-0.09,-1.12,0.29,-0.46,0.04
2022-02-17 5:48:22.5210 p.m.,-0.33,-0.13,-1.21,0.34,-0.43,0.05
2022-02-17 5:48:22.5310 p.m.,-0.44,-0.14,-1.34,0.42,-0.43,0.06
2022-02-17 5:48:22.5420 p.m.,-0.51,-0.1,-1.46,0.5,-0.46,0.06
2022-02-17 5:48:22.5510 p.m.,-0.59,-0.02,-1.53,0.58,-0.48,0.04
2022-02-17 5:48:22.5620 p.m.,-0.71,-0.01,-1.58,0.64,-0.5,0.02
2022-02-17 5:48:22.5720 p.m.,-0.79,-0.05,-1.58,0.67,-0.51,-0.01
2022-02-17 5:48:22.5820 p.m.,-0.84,-0.03,-1.54,0.68,-0.49,-0.03
2022-02-17 5:48:22.5920 p.m.,-0.87,-0.13,-1.5,0.67,-0.44,-0.05
2022-02-17 5:48:22.6020 p.m.,-0.84,-0.28,-1.5,0.64,-0.36,-0.06
2022-02-17 5:48:22.6120 p.m.,-0.78,-0.55,-1.51,0.63,-0.25,-0.07
2022-02-17 5:48:22.6220 p.m.,-0.68,-1.02,-1.58,0.62,-0.11,-0.09
2022-02-17 5:48:22.6320 p.m.,-0.66,-1.48,-1.72,0.62,0.04,-0.09
2022-02-17 5:48:22.6420 p.m.,-0.75,-1.8,-1.94,0.64,0.2,-0.07
2022-02-17 5:48:22.6520 p.m.,-0.77,-1.95,-2.19,0.67,0.37,-0.02
2022-02-17 5:48:22.6620 p.m.,-0.73,-2.04,-2.47,0.73,0.54,0.02
2022-02-17 5:48:22.6720 p.m.,-0.74,-2.06,-2.79,0.81,0.73,0.0
2022-02-17 5:48:22.6820 p.m.,-0.83,-2.08,-3.23,0.78,1.11,-0.1
2022-02-17 5:48:22.6920 p.m.,-0.96,-2.31,-3.73,0.16,2.07,-0.34
2022-02-17 5:48:22.7020 p.m.,-1.02,-3.06,-4.8,-0.39,2.35,-0.51
2022-02-17 5:48:22.7120 p.m.,-1.01,-4.15,-5.91,-0.62,1.84,-0.53
2022-02-17 5:48:22.7240 p.m.,-0.76,-4.05,-3.73,-0.62,1.84,-0.53
2022-02-17 5:48:22.7320 p.m.,-0.57,-3.9,-2.0,-0.84,0.16,-0.53
2022-02-17 5:48:22.7420 p.m.,-0.73,-4.4,-1.29,-1.14,-0.29,-0.46
2022-02-17 5:48:22.7530 p.m.,-1.08,-4.98,-1.26,-1.51,-0.52,-0.36
2022-02-17 5:48:22.7620 p.m.,-1.14,-5.19,-1.39,-1.86,-0.62,-0.31
2022-02-17 5:48:22.7720 p.m.,-1.17,-4.69,-1.3,-2.17,-0.59,-0.38
2022-02-17 5:48:22.7820 p.m.,-1.51,-3.2,-1.53,-2.41,-0.46,-0.42
2022-02-17 5:48:22.7930 p.m.,-1.42,-1.38,-2.03,-2.55,-0.31,-0.46
2022-02-17 5:48:22.8020 p.m.,-0.67,-0.18,-2.14,-2.65,-0.05,-0.57
2022-02-17 5:48:22.8130 p.m.,-0.05,0.42,-1.86,-2.8,0.19,-0.7
2022-02-17 5:48:22.8230 p.m.,0.79,0.4,-1.5,-3.07,0.28,-0.76
2022-02-17 5:48:22.8330 p.m.,1.75,0.15,-0.76,-3.32,0.3,-0.73
2022-02-17 5:48:22.8430 p.m.,2.52,0.4,-0.1,-3.4,0.37,-0.76
2022-02-17 5:48:22.8530 p.m.,3.08,0.74,0.17,-3.27,0.47,-0.8
2022-02-17 5:48:22.8630 p.m.,3.34,0.76,0.28,-3.06,0.46,-0.78
2022-02-17 5:48:22.8730 p.m.,3.45,0.71,0.75,-2.88,0.31,-0.79
2022-02-17 5:48:22.8830 p.m.,3.21,0.51,1.54,-2.88,0.31,-0.79
2022-02-17 5:48:22.8930 p.m.,2.13,-0.3,2.49,-2.78,-0.54,-0.93
2022-02-17 5:48:22.9030 p.m.,0.75,-1.49,3.61,-2.81,-1.15,-0.97
2022-02-17 5:48:22.9130 p.m.,-0.21,-2.42,4.58,-2.83,-1.36,-0.94
2022-02-17 5:48:22.9230 p.m.,-0.8,-2.81,4.71,-2.83,-0.92,-0.9
2022-02-17 5:48:22.9330 p.m.,-1.39,-2.7,3.9,-2.82,-0.21,-0.81
2022-02-17 5:48:22.9430 p.m.,-2.35,-2.51,2.95,-2.64,0.43,-0.64
2022-02-17 5:48:22.9530 p.m.,-2.56,-2.08,2.0,-2.39,0.85,-0.43
2022-02-17 5:48:22.9630 p.m.,-1.88,-1.93,1.3,-2.39,0.85,-0.24
2022-02-17 5:48:22.9730 p.m.,-1.45,-1.85,1.01,-2.35,1.19,-0.17
2022-02-17 5:48:22.9830 p.m.,-1.95,-1.8,1.57,-2.37,0.93,-0.08
2022-02-17 5:48:22.9930 p.m.,-1.83,-1.72,1.99,-2.22,0.62,0.01
2022-02-17 5:48:23.0030 p.m.,-1.34,-1.15,1.74,-1.96,0.46,0.08
2022-02-17 5:48:23.0130 p.m.,-1.04,-0.51,1.22,-1.72,0.39,0.13
2022-02-17 5:48:23.0240 p.m.,-0.93,0.01,0.76,-1.53,0.41,0.2
2022-02-17 5:48:23.0340 p.m.,-0.76,0.38,1.02,-1.41,0.64,0.33
2022-02-17 5:48:23.0440 p.m.,-0.33,0.75,1.64,-1.4,1.04,0.43
2022-02-17 5:48:23.0540 p.m.,0.03,1.0,2.59,-1.45,1.43,0.46
2022-02-17 5:48:23.0640 p.m.,0.13,1.21,3.71,-1.52,1.67,0.43
2022-02-17 5:48:23.0740 p.m.,0.05,1.55,4.54,-1.56,1.68,0.37
2022-02-17 5:48:23.0840 p.m.,0.05,1.88,4.97,-1.51,1.61,0.32
2022-02-17 5:48:23.0940 p.m.,0.06,2.22,4.79,-1.35,1.46,0.3
2022-02-17 5:48:23.1040 p.m.,0.07,2.44,4.08,-1.1,1.25,0.25
2022-02-17 5:48:23.1140 p.m.,-0.15,2.79,3.43,-0.82,1.03,0.28
2022-02-17 5:48:23.1240 p.m.,-0.43,3.0,2.75,-0.55,0.77,0.28
2022-02-17 5:48:23.1340 p.m.,-0.2,3.55,2.19,-0.28,0.57,0.27
2022-02-17 5:48:23.1440 p.m.,-0.12,3.99,1.83,-0.06,0.4,0.28
2022-02-17 5:48:23.1540 p.m.,0.01,3.97,1.56,0.14,0.22,0.31
2022-02-17 5:48:23.1640 p.m.,0.04,3.8,1.51,0.35,0.04,0.38
2022-02-17 5:48:23.1740 p.m.,-0.12,3.67,1.46,0.55,-0.11,0.47
2022-02-17 5:48:23.1840 p.m.,-0.35,3.51,1.32,0.72,-0.21,0.58
2022-02-17 5:48:23.1940 p.m.,-0.49,3.43,1.02,0.85,-0.27,0.7
2022-02-17 5:48:23.2040 p.m.,-0.61,3.35,0.51,1.0,-0.3,0.81
2022-02-17 5:48:23.2140 p.m.,-0.74,3.21,-0.19,1.18,-0.28,0.93
2022-02-17 5:48:23.2240 p.m.,-0.87,3.04,-0.95,1.3,-0.18,1.03
2022-02-17 5:48:23.2340 p.m.,-0.95,2.84,-1.73,1.2,-0.04,1.09
2022-02-17 5:48:23.2450 p.m.,-1.02,2.48,-2.61,0.87,0.26,1.1
2022-02-17 5:48:23.2540 p.m.,-0.95,1.79,-4.2,0.39,0.8,1.04
2022-02-17 5:48:23.2650 p.m.,-0.51,0.59,-6.49,-0.35,1.63,0.88
2022-02-17 5:48:23.2750 p.m.,0.06,-1.12,-8.16,-0.97,2.45,0.53
2022-02-17 5:48:23.2850 p.m.,0.52,-3.6,-9.42,-0.91,2.55,0.02
2022-02-17 5:48:23.2950 p.m.,1.31,-6.66,-10.04,-0.53,1.82,-0.37
2022-02-17 5:48:23.3050 p.m.,2.58,-8.03,-8.07,-0.26,0.98,-0.35
2022-02-17 5:48:23.3150 p.m.,3.45,-5.56,-4.51,0.0,0.51,-0.11
2022-02-17 5:48:23.3250 p.m.,3.33,-0.34,-1.91,0.27,0.69,0.16
2022-02-17 5:48:23.3350 p.m.,3.01,4.02,-1.26,0.39,1.38,0.23
2022-02-17 5:48:23.3450 p.m.,3.03,6.44,-0.36,0.35,1.9,0.13
2022-02-17 5:48:23.3550 p.m.,3.0,5.32,0.94,0.31,1.52,0.13
2022-02-17 5:48:23.3650 p.m.,3.26,1.18,1.67,0.45,0.06,0.23
2022-02-17 5:48:23.3750 p.m.,2.73,-2.55,3.37,0.43,-1.8,0.16
2022-02-17 5:48:23.3850 p.m.,0.95,-4.13,7.05,0.15,-2.48,-0.25
2022-02-17 5:48:23.3950 p.m.,-0.16,-5.99,8.94,0.06,-1.47,-0.58
2022-02-17 5:48:23.4050 p.m.,1.5,-8.01,5.19,0.65,0.01,-0.58
2022-02-17 5:48:23.4150 p.m.,4.66,-8.52,-1.93,1.28,-0.24,-0.22
2022-02-17 5:48:23.4250 p.m.,5.48,-5.93,-4.3,1.67,-1.58,0.24
2022-02-17 5:48:23.4360 p.m.,3.71,-0.01,1.8,1.9,-2.48,0.54
2022-02-17 5:48:23.4450 p.m.,1.94,3.8,5.6,2.08,-2.78,0.59
2022-02-17 5:48:23.4550 p.m.,0.39,4.98,5.28,2.22,-2.69,0.42
2022-02-17 5:48:23.4650 p.m.,-0.4,4.56,4.31,2.31,-2.65,0.08
2022-02-17 5:48:23.4750 p.m.,-1.07,3.3,3.54,2.31,-2.89,-0.32
2022-02-17 5:48:23.4860 p.m.,-1.65,1.82,3.65,2.21,-3.35,-0.66
2022-02-17 5:48:23.4960 p.m.,-1.95,0.78,4.24,2.16,-3.82,-0.94
2022-02-17 5:48:23.5060 p.m.,-1.95,0.41,4.38,2.16,-4.05,-1.23
2022-02-17 5:48:23.5160 p.m.,-2.03,0.16,3.73,2.17,-3.93,-1.64
2022-02-17 5:48:23.5260 p.m.,-2.78,-0.41,2.82,2.16,-3.53,-1.92
2022-02-17 5:48:23.5360 p.m.,-3.58,-1.5,1.96,2.09,-2.9,-1.87
2022-02-17 5:48:23.5460 p.m.,-2.92,-1.84,1.0,1.77,-1.86,-1.25
2022-02-17 5:48:23.5560 p.m.,-1.0,-1.89,0.56,1.13,-0.48,-0.23
2022-02-17 5:48:23.5660 p.m.,1.38,-2.65,1.14,0.73,0.55,0.16
2022-02-17 5:48:23.5760 p.m.,0.79,-3.17,1.8,0.81,1.23,0.17
2022-02-17 5:48:23.5860 p.m.,-2.84,-2.46,1.1,1.11,1.63,0.35
2022-02-17 5:48:23.5960 p.m.,-3.54,-1.04,-0.4,1.4,1.65,0.56
2022-02-17 5:48:23.6060 p.m.,-1.94,-0.22,-0.63,1.58,1.34,0.68
2022-02-17 5:48:23.6160 p.m.,-1.17,-0.15,0.17,1.57,0.83,0.69
2022-02-17 5:48:23.6260 p.m.,-1.08,0.15,0.62,1.41,0.3,0.65
2022-02-17 5:48:23.6360 p.m.,-0.86,0.68,0.49,1.29,-0.11,0.56
2022-02-17 5:48:23.6460 p.m.,-0.67,0.98,-0.09,1.29,-0.36,0.52
2022-02-17 5:48:23.6560 p.m.,-0.83,1.06,-0.59,1.4,-0.49,0.55
2022-02-17 5:48:23.6660 p.m.,-0.78,0.8,-0.85,1.51,-0.54,0.55
2022-02-17 5:48:23.6760 p.m.,-0.83,0.65,-0.93,1.54,-0.59,0.56
2022-02-17 5:48:23.6860 p.m.,-1.3,0.56,-0.68,1.49,-0.61,0.6
2022-02-17 5:48:23.6960 p.m.,-1.44,0.61,-0.29,1.43,-0.55,0.62
2022-02-17 5:48:23.7060 p.m.,-1.27,0.56,-0.2,1.38,-0.45,0.61
2022-02-17 5:48:23.7160 p.m.,-1.15,0.49,-0.42,1.33,-0.37,0.57
2022-02-17 5:48:23.7260 p.m.,-1.02,0.72,-0.67,1.3,-0.32,0.5
2022-02-17 5:48:23.7370 p.m.,-0.77,1.0,-0.85,1.26,-0.31,0.42
2022-02-17 5:48:23.7470 p.m.,-0.57,1.16,-0.91,1.22,-0.36,0.34
2022-02-17 5:48:23.7570 p.m.,-0.45,1.24,-0.86,1.19,-0.45,0.25
2022-02-17 5:48:23.7670 p.m.,-0.42,1.43,-0.77,1.19,-0.45,0.25
2022-02-17 5:48:23.7770 p.m.,-0.38,1.55,-0.71,1.14,-0.62,0.05
2022-02-17 5:48:23.7870 p.m.,-0.37,1.47,-0.73,1.15,-0.63,-0.04
2022-02-17 5:48:23.7970 p.m.,-0.37,1.32,-0.98,1.17,-0.61,-0.12
2022-02-17 5:48:23.8070 p.m.,-0.31,1.13,-1.26,1.22,-0.57,-0.21
2022-02-17 5:48:23.8170 p.m.,-0.3,0.76,-1.46,1.29,-0.53,-0.28
2022-02-17 5:48:23.8270 p.m.,-0.45,0.21,-1.65,1.36,-0.48,-0.27
2022-02-17 5:48:23.8370 p.m.,-0.56,-0.02,-1.82,1.42,-0.41,-0.25
2022-02-17 5:48:23.8470 p.m.,-0.58,-0.04,-1.97,1.5,-0.29,-0.21
2022-02-17 5:48:23.8570 p.m.,-0.75,-0.39,-2.18,1.56,-0.13,-0.15
2022-02-17 5:48:23.8670 p.m.,-0.9,-0.91,-2.47,1.62,0.15,-0.07
2022-02-17 5:48:23.8770 p.m.,-0.92,-1.29,-2.83,1.7,0.7,0.07
2022-02-17 5:48:23.8870 p.m.,-0.93,-1.56,-3.5,1.7,1.54,0.23
2022-02-17 5:48:23.8970 p.m.,-0.85,-1.5,-4.9,0.84,2.66,0.23
2022-02-17 5:48:23.9070 p.m.,-0.82,-0.93,-6.26,-0.04,2.71,0.03
2022-02-17 5:48:23.9170 p.m.,-0.92,-0.69,-6.17,-0.24,1.61,-0.13
2022-02-17 5:48:23.9270 p.m.,-1.18,-1.76,-2.12,-0.14,0.13,-0.12
2022-02-17 5:48:23.9370 p.m.,-1.23,-2.86,0.49,-0.02,-1.14,0.03
2022-02-17 5:48:23.9470 p.m.,-1.12,-3.25,0.53,-0.01,-2.07,0.3
2022-02-17 5:48:23.9580 p.m.,-1.13,-3.46,-0.01,-0.02,-2.75,0.49
2022-02-17 5:48:23.9680 p.m.,-1.16,-3.21,-0.13,0.03,-3.14,0.44
2022-02-17 5:48:23.9780 p.m.,-1.55,-2.38,-0.32,0.03,-3.14,0.44
2022-02-17 5:48:23.9880 p.m.,-1.36,-2.97,-1.09,0.04,-1.98,0.1
2022-02-17 5:48:23.9980 p.m.,-0.61,-4.6,-2.31,-0.5,0.27,-0.3
2022-02-17 5:48:24.0080 p.m.,-0.81,-6.03,-5.95,-1.44,1.5,-0.47
2022-02-17 5:48:24.0180 p.m.,-2.34,-6.59,-7.38,-2.3,1.89,-0.51
2022-02-17 5:48:24.0280 p.m.,-2.64,-5.79,-1.73,-2.87,1.97,-0.44
2022-02-17 5:48:24.0380 p.m.,-2.6,-5.9,0.99,-2.96,2.15,-0.33
2022-02-17 5:48:24.0480 p.m.,-2.43,-5.74,0.97,-3.01,2.52,-0.39
2022-02-17 5:48:24.0580 p.m.,-2.19,-4.11,-0.99,-3.24,2.9,-0.58
2022-02-17 5:48:24.0680 p.m.,-1.46,-2.2,-3.23,-3.55,2.85,-0.82
2022-02-17 5:48:24.0780 p.m.,-0.2,-0.59,-3.28,-3.81,2.32,-1.02
2022-02-17 5:48:24.0880 p.m.,0.56,0.82,-1.49,-3.89,1.38,-1.1
2022-02-17 5:48:24.0980 p.m.,1.19,1.47,0.28,-3.74,0.33,-1.01
2022-02-17 5:48:24.1080 p.m.,1.8,1.51,1.87,-3.38,-0.59,-0.81
2022-02-17 5:48:24.1180 p.m.,2.23,1.23,2.84,-2.91,-1.2,-0.57
2022-02-17 5:48:24.1280 p.m.,2.47,0.81,3.28,-2.46,-1.5,-0.34
2022-02-17 5:48:24.1380 p.m.,2.67,0.06,3.33,-2.2,-1.56,-0.2
2022-02-17 5:48:24.1480 p.m.,2.93,-1.17,3.48,-2.14,-1.43,-0.16
2022-02-17 5:48:24.1580 p.m.,2.98,-2.38,3.8,-2.25,-1.17,-0.21
2022-02-17 5:48:24.1680 p.m.,2.57,-2.64,4.22,-2.49,-0.69,-0.32
2022-02-17 5:48:24.1780 p.m.,1.77,-2.05,4.49,-2.77,0.02,-0.47
2022-02-17 5:48:24.1890 p.m.,0.67,-1.5,4.15,-3.08,0.54,-0.69
2022-02-17 5:48:24.1990 p.m.,-0.4,-1.07,3.71,-3.28,1.2,-0.91
2022-02-17 5:48:24.2090 p.m.,-1.04,-0.7,3.85,-3.33,2.32,-1.02
2022-02-17 5:48:24.2190 p.m.,-1.89,-0.38,2.72,-3.27,3.21,-0.92
2022-02-17 5:48:24.2290 p.m.,-2.49,-0.44,2.14,-3.04,3.15,-0.7
2022-02-17 5:48:24.2390 p.m.,-2.1,-0.48,2.9,-2.87,2.38,-0.45
2022-02-17 5:48:24.2490 p.m.,-1.86,-0.67,2.75,-2.52,1.34,-0.15
2022-02-17 5:48:24.2590 p.m.,-1.89,-1.21,2.93,-2.05,0.76,0.06
2022-02-17 5:48:24.2690 p.m.,-1.48,-1.47,2.54,-1.63,0.59,0.19
2022-02-17 5:48:24.2790 p.m.,-1.19,-1.4,1.48,-1.35,0.6,0.28
2022-02-17 5:48:24.2890 p.m.,-0.76,-0.72,1.66,-1.19,0.71,0.36
2022-02-17 5:48:24.2990 p.m.,-0.27,0.06,2.47,-1.09,0.94,0.45
2022-02-17 5:48:24.3090 p.m.,-0.12,0.72,3.4,-1.05,1.19,0.52
2022-02-17 5:48:24.3190 p.m.,0.03,1.18,4.17,-1.04,1.35,0.53
2022-02-17 5:48:24.3290 p.m.,0.03,1.68,4.93,-0.99,1.45,0.51
2022-02-17 5:48:24.3390 p.m.,-0.22,2.15,5.39,-0.9,1.48,0.51
2022-02-17 5:48:24.3490 p.m.,-0.48,2.74,5.29,-0.73,1.42,0.54
2022-02-17 5:48:24.3590 p.m.,-0.65,3.32,4.95,-0.49,1.29,0.55
2022-02-17 5:48:24.3690 p.m.,-0.81,3.69,4.4,-0.24,1.0,0.5
2022-02-17 5:48:24.3790 p.m.,-0.95,3.98,3.97,0.04,0.57,0.49
2022-02-17 5:48:24.3900 p.m.,-0.77,4.34,3.7,0.32,0.32,0.51
2022-02-17 5:48:24.3990 p.m.,-0.44,4.86,3.27,0.63,0.22,0.6
2022-02-17 5:48:24.4090 p.m.,-0.63,5.03,2.77,0.9,0.19,0.74
2022-02-17 5:48:24.4200 p.m.,-0.84,4.91,2.41,1.11,0.15,0.92
2022-02-17 5:48:24.4300 p.m.,-0.87,4.68,2.01,1.26,0.07,1.09
2022-02-17 5:48:24.4400 p.m.,-0.86,4.49,1.36,1.44,0.04,1.27
2022-02-17 5:48:24.4500 p.m.,-0.93,4.33,0.52,1.59,0.05,1.42
2022-02-17 5:48:24.4600 p.m.,-1.26,4.07,-0.27,1.36,-0.07,1.46
2022-02-17 5:48:24.4700 p.m.,-1.79,3.3,-0.92,0.51,-0.07,1.31
2022-02-17 5:48:24.4800 p.m.,-1.75,1.3,-2.7,-0.24,0.44,0.94
2022-02-17 5:48:24.4900 p.m.,-0.57,-1.89,-6.58,-0.83,1.51,0.47
2022-02-17 5:48:24.5000 p.m.,1.25,-4.98,-10.42,-1.24,2.53,0.02
2022-02-17 5:48:24.5100 p.m.,3.0,-7.77,-13.08,-1.07,2.33,-0.32
2022-02-17 5:48:24.5200 p.m.,4.57,-9.98,-13.12,-1.07,2.33,-0.32
2022-02-17 5:48:24.5300 p.m.,5.22,-9.8,-9.89,0.02,0.28,-0.14
2022-02-17 5:48:24.5400 p.m.,4.26,-5.7,-6.09,0.5,0.28,0.31
2022-02-17 5:48:24.5500 p.m.,2.65,1.12,-3.28,0.79,1.0,0.71
2022-02-17 5:48:24.5600 p.m.,2.06,6.51,-1.46,0.77,1.69,0.79
2022-02-17 5:48:24.5700 p.m.,2.48,8.84,0.47,0.64,1.64,0.75
2022-02-17 5:48:24.5800 p.m.,2.96,6.86,2.52,0.52,0.81,0.78
2022-02-17 5:48:24.5900 p.m.,2.99,2.13,3.22,0.5,-0.67,0.85
2022-02-17 5:48:24.6000 p.m.,1.59,-3.25,3.5,0.49,-2.13,0.5
2022-02-17 5:48:24.6100 p.m.,-0.56,-7.27,5.15,0.22,-2.58,-0.16
2022-02-17 5:48:24.6210 p.m.,-1.04,-10.22,7.13,0.38,-1.33,-0.48
2022-02-17 5:48:24.6300 p.m.,1.93,-10.89,4.39,0.89,-0.02,-0.3
2022-02-17 5:48:24.6410 p.m.,4.84,-7.95,-3.17,1.09,-0.56,0.17
2022-02-17 5:48:24.6500 p.m.,4.76,-1.81,-3.28,1.23,-1.9,0.46
2022-02-17 5:48:24.6600 p.m.,3.57,4.06,4.22,1.47,-2.74,0.43
2022-02-17 5:48:24.6710 p.m.,1.79,5.92,6.89,1.77,-2.86,0.25
2022-02-17 5:48:24.6810 p.m.,0.6,5.98,5.26,2.07,-2.51,0.03
2022-02-17 5:48:24.6910 p.m.,0.2,5.77,2.81,2.22,-2.35,-0.26
2022-02-17 5:48:24.7010 p.m.,-0.13,5.0,1.53,2.16,-2.65,-0.61
2022-02-17 5:48:24.7110 p.m.,-0.75,3.18,2.91,1.99,-3.13,-0.98
2022-02-17 5:48:24.7210 p.m.,-1.18,1.5,4.86,1.92,-3.61,-1.31
2022-02-17 5:48:24.7310 p.m.,-1.5,0.52,5.4,1.99,-3.87,-1.63
2022-02-17 5:48:24.7420 p.m.,-2.07,-0.63,4.66,2.05,-3.94,-1.83
2022-02-17 5:48:24.7510 p.m.,-2.75,-2.01,3.68,1.99,-3.75,-1.75
2022-02-17 5:48:24.7610 p.m.,-2.61,-2.82,3.29,1.51,-2.76,-0.98
2022-02-17 5:48:24.7710 p.m.,-1.59,-3.53,3.09,0.87,-1.21,0.0
2022-02-17 5:48:24.7810 p.m.,0.44,-4.72,3.28,0.67,0.13,0.29
2022-02-17 5:48:24.7910 p.m.,-1.27,-4.05,2.37,0.92,1.31,0.27
2022-02-17 5:48:24.8010 p.m.,-4.92,-2.74,0.17,1.27,2.0,0.4
2022-02-17 5:48:24.8110 p.m.,-5.24,-1.3,-1.75,1.45,2.15,0.57
2022-02-17 5:48:24.8210 p.m.,-3.3,-0.41,-0.86,1.39,1.88,0.66
2022-02-17 5:48:24.8310 p.m.,-1.81,-0.36,0.38,1.24,1.32,0.69
2022-02-17 5:48:24.8410 p.m.,-0.88,-0.34,1.11,1.18,0.7,0.74
2022-02-17 5:48:24.8510 p.m.,-0.18,0.01,1.45,1.27,0.14,0.78
2022-02-17 5:48:24.8620 p.m.,0.24,0.44,1.23,1.47,-0.29,0.8
2022-02-17 5:48:24.8720 p.m.,0.42,0.73,0.73,1.68,-0.62,0.78
2022-02-17 5:48:24.8810 p.m.,0.45,1.02,0.14,1.86,-0.84,0.7
2022-02-17 5:48:24.8920 p.m.,0.18,1.34,-0.22,1.96,-0.94,0.61
2022-02-17 5:48:24.9020 p.m.,-0.22,1.62,-0.47,1.93,-1.0,0.55
2022-02-17 5:48:24.9120 p.m.,-0.41,1.51,-0.5,1.8,-1.0,0.49
2022-02-17 5:48:24.9220 p.m.,-0.39,1.09,-0.22,1.61,-0.92,0.43
2022-02-17 5:48:24.9320 p.m.,-0.67,0.72,-0.1,1.42,-0.78,0.4
2022-02-17 5:48:24.9420 p.m.,-0.9,0.65,-0.2,1.26,-0.65,0.36
2022-02-17 5:48:24.9520 p.m.,-0.82,0.87,-0.36,1.17,-0.56,0.32
2022-02-17 5:48:24.9620 p.m.,-0.84,1.24,-0.55,1.13,-0.55,0.27
2022-02-17 5:48:24.9720 p.m.,-0.93,1.49,-0.72,1.15,-0.6,0.22
2022-02-17 5:48:24.9820 p.m.,-0.91,1.71,-0.8,1.23,-0.72,0.16
2022-02-17 5:48:24.9920 p.m.,-0.86,1.87,-0.92,1.36,-0.89,0.08
2022-02-17 5:48:25.0020 p.m.,-0.8,1.8,-1.02,1.51,-1.07,-0.0
2022-02-17 5:48:25.0120 p.m.,-0.7,1.67,-1.11,1.51,-1.07,-0.0
2022-02-17 5:48:25.0220 p.m.,-0.62,1.23,-1.25,1.65,-1.25,-0.08
2022-02-17 5:48:25.0320 p.m.,-0.52,0.77,-1.3,1.81,-1.42,-0.12
2022-02-17 5:48:25.0420 p.m.,-0.48,0.67,-1.32,1.81,-1.42,-0.12
2022-02-17 5:48:25.0520 p.m.,-0.5,0.64,-1.52,1.71,-1.12,-0.1
2022-02-17 5:48:25.0620 p.m.,-0.59,0.33,-1.71,1.71,-1.12,-0.1
2022-02-17 5:48:25.0720 p.m.,-0.5,-0.48,-1.84,1.42,-0.42,-0.07
2022-02-17 5:48:25.0820 p.m.,-0.18,-1.79,-2.07,1.44,0.56,-0.09
2022-02-17 5:48:25.0920 p.m.,-0.11,-2.93,-2.99,1.55,1.89,-0.07
2022-02-17 5:48:25.1030 p.m.,-0.36,-2.69,-6.06,1.52,2.66,-0.08
2022-02-17 5:48:25.1120 p.m.,-0.88,-1.74,-7.35,1.1,2.82,-0.14
2022-02-17 5:48:25.1230 p.m.,-1.44,-1.87,-4.75,0.33,2.48,-0.21
2022-02-17 5:48:25.1330 p.m.,-1.78,-2.47,-2.37,-0.14,1.5,-0.29
2022-02-17 5:48:25.1430 p.m.,-1.98,-3.52,-0.59,-0.33,0.36,-0.2
2022-02-17 5:48:25.1530 p.m.,-1.73,-4.77,0.6,-0.38,-0.59,0.04
2022-02-17 5:48:25.1630 p.m.,-1.09,-5.08,0.0,-0.35,-1.24,0.17
2022-02-17 5:48:25.1730 p.m.,-0.99,-4.58,-1.04,-0.33,-1.48,0.09
2022-02-17 5:48:25.1830 p.m.,-1.58,-3.73,-2.03,-0.48,-1.23,-0.05
2022-02-17 5:48:25.1930 p.m.,-1.59,-3.72,-2.72,-1.01,-0.56,-0.17
2022-02-17 5:48:25.2030 p.m.,-1.1,-4.69,-3.33,-1.7,0.02,-0.21
2022-02-17 5:48:25.2130 p.m.,-1.0,-5.95,-3.07,-2.27,0.4,-0.19
2022-02-17 5:48:25.2230 p.m.,-1.25,-6.73,-1.61,-2.6,0.68,-0.14
2022-02-17 5:48:25.2330 p.m.,-1.28,-6.49,-0.96,-2.78,1.0,-0.19
2022-02-17 5:48:25.2430 p.m.,-1.07,-5.09,-1.68,-3.03,1.54,-0.41
2022-02-17 5:48:25.2530 p.m.,-0.73,-3.05,-2.88,-3.42,1.98,-0.7
2022-02-17 5:48:25.2630 p.m.,0.09,-1.35,-3.59,-3.72,1.92,-0.95
2022-02-17 5:48:25.2730 p.m.,0.95,0.29,-2.45,-3.83,1.32,-1.1
2022-02-17 5:48:25.2830 p.m.,1.38,1.44,-0.5,-3.75,0.37,-1.11
2022-02-17 5:48:25.2930 p.m.,1.76,1.83,1.2,-3.46,-0.57,-0.99
2022-02-17 5:48:25.3030 p.m.,2.06,1.9,2.56,-3.1,-1.25,-0.75
2022-02-17 5:48:25.3130 p.m.,2.28,1.56,3.19,-2.74,-1.57,-0.48
2022-02-17 5:48:25.3230 p.m.,2.47,0.91,3.24,-2.47,-1.65,-0.3
2022-02-17 5:48:25.3340 p.m.,2.66,0.22,3.17,-2.47,-1.65,-0.3
2022-02-17 5:48:25.3430 p.m.,2.71,-0.85,3.4,-2.39,-1.28,-0.32
2022-02-17 5:48:25.3540 p.m.,2.56,-1.74,3.38,-2.48,-1.07,-0.38
2022-02-17 5:48:25.3640 p.m.,2.18,-1.67,3.65,-2.48,-1.07,-0.38
2022-02-17 5:48:25.3740 p.m.,1.71,-1.14,4.37,-2.77,-0.18,-0.6
2022-02-17 5:48:25.3840 p.m.,0.84,-1.13,4.65,-2.91,0.55,-0.78
2022-02-17 5:48:25.3940 p.m.,-0.37,-1.07,4.42,-2.91,1.36,-0.93
2022-02-17 5:48:25.4040 p.m.,-1.39,-0.63,4.01,-2.91,1.36,-0.93
2022-02-17 5:48:25.4140 p.m.,-1.81,-0.22,3.26,-2.5,2.69,-0.79
2022-02-17 5:48:25.4240 p.m.,-1.81,-0.38,2.6,-2.5,2.52,-0.54
2022-02-17 5:48:25.4340 p.m.,-1.99,-0.94,2.43,-2.55,1.78,-0.24
2022-02-17 5:48:25.4440 p.m.,-2.3,-1.28,2.72,-2.32,1.04,0.05
2022-02-17 5:48:25.4540 p.m.,-2.1,-1.39,2.6,-1.79,0.66,0.32
2022-02-17 5:48:25.4640 p.m.,-1.71,-0.91,1.79,-1.79,0.66,0.32
2022-02-17 5:48:25.4740 p.m.,-1.06,-0.71,1.14,-0.96,0.76,0.6
2022-02-17 5:48:25.4840 p.m.,-0.2,-0.41,1.57,-0.95,1.03,0.65
2022-02-17 5:48:25.4940 p.m.,0.03,0.03,2.64,-0.99,1.48,0.67
2022-02-17 5:48:25.5040 p.m.,0.24,0.84,4.3,-1.03,1.84,0.62
2022-02-17 5:48:25.5140 p.m.,-0.12,1.53,4.85,-1.12,2.02,0.58
2022-02-17 5:48:25.5240 p.m.,-0.13,1.73,5.64,-1.14,1.98,0.6
2022-02-17 5:48:25.5340 p.m.,-0.3,2.65,5.96,-1.05,1.73,0.66
2022-02-17 5:48:25.5440 p.m.,-0.39,3.38,5.32,-0.82,1.34,0.66
2022-02-17 5:48:25.5540 p.m.,-0.32,3.75,4.33,-0.5,1.0,0.6
2022-02-17 5:48:25.5640 p.m.,-0.27,4.02,3.16,-0.17,0.77,0.5
2022-02-17 5:48:25.5740 p.m.,-0.13,4.34,2.27,0.15,0.57,0.44
2022-02-17 5:48:25.5850 p.m.,0.09,4.41,2.06,0.47,0.38,0.43
2022-02-17 5:48:25.5950 p.m.,0.42,4.25,1.99,0.75,0.28,0.47
2022-02-17 5:48:25.6050 p.m.,0.51,4.0,1.77,0.96,0.3,0.56
2022-02-17 5:48:25.6150 p.m.,0.28,3.85,1.37,1.1,0.25,0.72
2022-02-17 5:48:25.6250 p.m.,-0.06,3.68,1.01,1.09,0.03,0.88
2022-02-17 5:48:25.6350 p.m.,-0.53,3.11,0.68,0.77,-0.26,1.0
2022-02-17 5:48:25.6450 p.m.,-0.91,2.13,-0.01,0.77,-0.26,1.0
2022-02-17 5:48:25.6550 p.m.,-0.8,0.57,-1.74,-0.07,-0.06,0.95
2022-02-17 5:48:25.6650 p.m.,-0.17,-1.55,-4.43,-0.01,0.54,0.78
2022-02-17 5:48:25.6750 p.m.,0.65,-3.22,-6.9,-0.08,1.11,0.55
2022-02-17 5:48:25.6850 p.m.,1.41,-4.16,-7.4,-0.56,1.61,0.3
2022-02-17 5:48:25.6950 p.m.,1.88,-4.51,-6.04,-1.06,1.99,0.03
2022-02-17 5:48:25.7050 p.m.,2.35,-4.38,-5.09,-1.06,1.99,0.03
2022-02-17 5:48:25.7150 p.m.,2.58,-4.27,-5.26,-0.88,1.43,-0.48
2022-02-17 5:48:25.7250 p.m.,2.6,-3.93,-4.8,-0.68,0.75,-0.61
2022-02-17 5:48:25.7350 p.m.,2.48,-2.7,-2.86,-0.56,0.46,-0.6
2022-02-17 5:48:25.7450 p.m.,2.49,-0.34,-1.4,-0.36,0.51,-0.46
2022-02-17 5:48:25.7550 p.m.,2.6,2.5,-0.88,-0.16,0.61,-0.32
2022-02-17 5:48:25.7650 p.m.,2.63,4.78,-0.51,-0.0,0.61,-0.29
2022-02-17 5:48:25.7750 p.m.,2.41,5.89,-0.17,0.15,0.53,-0.35
2022-02-17 5:48:25.7860 p.m.,1.88,5.44,0.16,0.35,0.42,-0.39
2022-02-17 5:48:25.7950 p.m.,1.46,3.46,0.2,0.5,0.31,-0.4
2022-02-17 5:48:25.8060 p.m.,1.3,0.99,0.39,0.5,0.31,-0.4
2022-02-17 5:48:25.8160 p.m.,1.2,-1.03,0.48,0.31,0.2,-0.41
2022-02-17 5:48:25.8260 p.m.,1.36,-2.5,0.98,-0.02,0.57,-0.41
2022-02-17 5:48:25.8360 p.m.,1.34,-2.9,1.39,-0.18,1.13,-0.46
2022-02-17 5:48:25.8460 p.m.,0.82,-1.28,0.32,0.04,1.26,-0.58
2022-02-17 5:48:25.8560 p.m.,0.2,1.2,-1.22,0.46,0.5,-0.7
2022-02-17 5:48:25.8660 p.m.,0.23,3.78,-0.97,0.78,-0.63,-0.76
2022-02-17 5:48:25.8760 p.m.,0.46,5.88,1.19,0.79,-1.36,-0.79
2022-02-17 5:48:25.8860 p.m.,0.5,6.54,3.36,0.31,-1.68,-0.8
2022-02-17 5:48:25.8960 p.m.,0.85,5.71,4.47,-0.1,-1.71,-0.7
2022-02-17 5:48:25.9060 p.m.,2.09,3.81,4.03,0.09,-1.2,-0.55
2022-02-17 5:48:25.9160 p.m.,3.21,1.76,1.53,0.85,-0.54,-0.48
2022-02-17 5:48:25.9260 p.m.,3.45,0.64,-2.0,1.26,-1.26,-0.57
2022-02-17 5:48:25.9360 p.m.,2.37,0.11,-2.5,1.28,-2.61,-0.6
2022-02-17 5:48:25.9460 p.m.,-1.0,-0.06,3.58,1.37,-3.07,-0.64
2022-02-17 5:48:25.9560 p.m.,-3.93,0.7,7.69,1.47,-2.77,-0.7
2022-02-17 5:48:25.9660 p.m.,-4.15,1.09,9.11,1.77,-2.39,-0.68
2022-02-17 5:48:25.9760 p.m.,-2.24,0.33,8.77,2.12,-2.44,-0.67
2022-02-17 5:48:25.9860 p.m.,0.01,-1.51,6.37,2.48,-2.91,-0.69
2022-02-17 5:48:25.9960 p.m.,1.38,-4.2,5.34,2.88,-3.61,-0.84
2022-02-17 5:48:26.0070 p.m.,1.46,-5.83,5.57,3.26,-4.57,-1.06
2022-02-17 5:48:26.0160 p.m.,0.96,-6.02,6.43,3.68,-5.59,-1.3
2022-02-17 5:48:26.0260 p.m.,1.13,-5.64,7.34,4.23,-6.36,-1.5
2022-02-17 5:48:26.0360 p.m.,2.06,-5.75,7.75,4.79,-6.63,-1.67
2022-02-17 5:48:26.0460 p.m.,2.81,-7.02,7.28,5.3,-6.11,-1.5
2022-02-17 5:48:26.0570 p.m.,3.62,-9.73,6.44,5.36,-5.03,-0.91
2022-02-17 5:48:26.0680 p.m.,4.67,-11.72,6.12,4.84,-3.45,-0.32
2022-02-17 5:48:26.0770 p.m.,6.05,-14.77,8.2,4.84,-3.45,-0.32
2022-02-17 5:48:26.0880 p.m.,3.3,-15.44,9.27,4.69,-2.24,-0.19
2022-02-17 5:48:26.0970 p.m.,-0.47,-12.28,7.33,4.81,-0.27,0.24
2022-02-17 5:48:26.1070 p.m.,-1.7,-8.45,5.46,4.58,-0.08,0.3
2022-02-17 5:48:26.1170 p.m.,-3.84,-4.47,5.39,4.07,-0.18,-0.06
2022-02-17 5:48:26.1270 p.m.,-5.78,-1.66,5.34,3.55,-0.2,-0.52
2022-02-17 5:48:26.1370 p.m.,-6.3,-0.23,3.64,3.06,-0.11,-0.91
2022-02-17 5:48:26.1470 p.m.,-6.47,1.29,1.85,2.64,-0.01,-1.2
2022-02-17 5:48:26.1570 p.m.,-6.56,2.38,0.58,3.61,2.02,-1.62
2022-02-17 5:48:26.1670 p.m.,-6.4,3.09,-1.2,5.9,5.58,-1.96
2022-02-17 5:48:26.1770 p.m.,-9.81,2.93,-16.9,2.66,2.6,-1.51
2022-02-17 5:48:26.1870 p.m.,-12.08,3.19,-23.16,-1.14,-1.34,-0.74
2022-02-17 5:48:26.1970 p.m.,-6.1,-3.38,-20.89,0.84,-0.34,0.35
2022-02-17 5:48:26.2080 p.m.,0.31,-7.63,-33.65,0.84,-0.34,0.35
2022-02-17 5:48:26.2180 p.m.,-0.75,0.18,-26.6,2.9,3.85,0.69
2022-02-17 5:48:26.2280 p.m.,-4.3,3.84,-24.08,2.31,3.65,1.04
2022-02-17 5:48:26.2380 p.m.,-7.05,8.69,-27.18,1.06,1.71,1.3
2022-02-17 5:48:26.2470 p.m.,-6.84,8.53,-12.38,0.3,-0.4,1.19
2022-02-17 5:48:26.2570 p.m.,-7.39,3.36,9.1,0.33,-3.04,1.13
2022-02-17 5:48:26.2670 p.m.,-9.92,3.68,10.07,0.59,-5.63,1.06
2022-02-17 5:48:26.2780 p.m.,-9.42,6.19,8.92,1.45,-8.33,1.34
2022-02-17 5:48:26.2880 p.m.,-6.4,6.67,9.27,2.81,-10.67,1.51
2022-02-17 5:48:26.2980 p.m.,-3.76,9.08,9.56,4.11,-11.59,1.72
2022-02-17 5:48:26.3080 p.m.,-2.0,10.81,8.52,4.58,-9.43,2.36
2022-02-17 5:48:26.3180 p.m.,4.96,13.87,8.02,4.78,-4.7,2.8
2022-02-17 5:48:26.3280 p.m.,15.31,15.76,2.43,4.66,1.09,2.96
2022-02-17 5:48:26.3380 p.m.,20.45,13.24,-8.6,4.01,7.55,2.78
2022-02-17 5:48:26.3480 p.m.,17.43,10.5,-16.75,4.01,7.55,2.78
2022-02-17 5:48:26.3580 p.m.,7.9,7.63,-20.5,1.19,15.38,0.86
2022-02-17 5:48:26.3680 p.m.,-1.9,2.59,-15.96,0.4,13.85,-0.78
2022-02-17 5:48:26.3780 p.m.,-5.51,-0.04,-6.53,0.08,9.26,-2.55
2022-02-17 5:48:26.3880 p.m.,-4.93,-3.81,4.76,0.14,2.51,-3.18
2022-02-17 5:48:26.3980 p.m.,-3.37,-7.2,11.08,-0.87,-1.86,-3.6
2022-02-17 5:48:26.4080 p.m.,0.11,-8.07,10.43,-0.87,-1.86,-3.6
2022-02-17 5:48:26.4180 p.m.,-2.22,-10.57,6.37,-3.16,-6.65,-4.58
2022-02-17 5:48:26.4280 p.m.,-3.66,-12.68,6.08,-3.16,-6.65,-4.58
2022-02-17 5:48:26.4390 p.m.,0.46,-15.1,6.65,-4.14,-7.17,-2.88
2022-02-17 5:48:26.4490 p.m.,9.65,-17.94,6.14,-4.41,-5.04,0.21
2022-02-17 5:48:26.4590 p.m.,10.3,-21.01,4.32,-4.41,-5.04,0.21
2022-02-17 5:48:26.4690 p.m.,0.52,-21.33,2.72,-2.22,-1.49,-1.6
2022-02-17 5:48:26.4790 p.m.,-4.35,-17.91,0.59,-2.22,-1.49,-1.6
2022-02-17 5:48:26.4890 p.m.,-3.64,-13.67,-2.47,-0.52,3.05,-2.03
2022-02-17 5:48:26.4980 p.m.,-3.45,-8.8,-2.29,0.02,4.53,-1.79
2022-02-17 5:48:26.5080 p.m.,-4.17,-4.81,-0.53,0.26,5.57,-1.54
2022-02-17 5:48:26.5190 p.m.,-4.86,-1.77,1.22,0.35,6.38,-1.32
2022-02-17 5:48:26.5290 p.m.,-6.45,-0.32,1.05,0.79,7.9,-1.16
2022-02-17 5:48:26.5390 p.m.,-7.21,0.84,-1.74,2.05,10.33,-0.95
2022-02-17 5:48:26.5490 p.m.,-7.85,2.12,-8.22,3.54,12.21,-0.31
2022-02-17 5:48:26.5590 p.m.,-7.87,4.18,-15.19,3.84,12.65,0.7
2022-02-17 5:48:26.5690 p.m.,-5.53,6.56,-15.34,3.84,12.65,0.7
2022-02-17 5:48:26.5790 p.m.,-1.72,7.59,-12.01,-0.19,3.65,0.65
2022-02-17 5:48:26.5890 p.m.,1.84,7.19,-3.67,1.58,0.42,0.97
2022-02-17 5:48:26.5990 p.m.,-0.15,9.78,-5.26,3.44,-1.63,1.36
2022-02-17 5:48:26.6090 p.m.,-1.7,10.99,-7.98,4.56,-2.58,1.78
2022-02-17 5:48:26.6190 p.m.,-1.34,11.99,-8.2,5.24,-2.92,2.13
2022-02-17 5:48:26.6290 p.m.,0.38,11.45,-8.01,5.24,-2.92,2.13
2022-02-17 5:48:26.6390 p.m.,2.16,9.34,-8.11,5.45,-0.71,1.86
2022-02-17 5:48:26.6490 p.m.,3.06,7.11,-10.06,4.32,1.61,1.26
2022-02-17 5:48:26.6590 p.m.,4.23,4.98,-15.24,3.56,2.61,0.94
2022-02-17 5:48:26.6690 p.m.,5.11,5.22,-14.77,3.33,2.34,0.84
2022-02-17 5:48:26.6790 p.m.,3.75,6.88,-11.04,3.42,1.06,0.71
2022-02-17 5:48:26.6890 p.m.,2.47,7.71,-8.11,3.61,-0.55,0.5
2022-02-17 5:48:26.6990 p.m.,1.24,7.12,-5.51,3.78,-2.04,0.27
2022-02-17 5:48:26.7100 p.m.,0.4,6.55,-4.86,3.82,-3.15,0.05
2022-02-17 5:48:26.7200 p.m.,-0.23,6.36,-4.75,3.55,-3.85,-0.11
2022-02-17 5:48:26.7290 p.m.,-0.72,6.3,-4.6,2.83,-4.65,-0.15
2022-02-17 5:48:26.7390 p.m.,-0.91,6.36,-3.24,1.83,-5.55,-0.16
2022-02-17 5:48:26.7490 p.m.,-1.06,6.28,-0.43,0.64,-5.96,-0.18
2022-02-17 5:48:26.7600 p.m.,-1.57,6.17,1.28,-0.81,-5.86,-0.22
2022-02-17 5:48:26.7700 p.m.,-1.42,7.02,2.99,-2.08,-4.99,-0.12
2022-02-17 5:48:26.7800 p.m.,-1.09,7.45,5.55,-2.98,-3.89,0.22
2022-02-17 5:48:26.7900 p.m.,0.63,7.83,6.64,-2.99,-2.65,0.46
2022-02-17 5:48:26.8000 p.m.,0.94,7.12,7.58,-1.64,-3.05,0.01
2022-02-17 5:48:26.8100 p.m.,0.21,5.11,8.53,1.09,-3.81,-1.07
2022-02-17 5:48:26.8200 p.m.,-1.1,1.78,12.57,1.09,-3.81,-1.07
2022-02-17 5:48:26.8310 p.m.,0.35,-0.25,14.44,3.94,-3.98,-1.64
2022-02-17 5:48:26.8410 p.m.,5.31,1.35,15.25,5.28,-3.04,-0.74
2022-02-17 5:48:26.8510 p.m.,9.23,3.4,16.63,4.8,-2.22,0.44
2022-02-17 5:48:26.8610 p.m.,7.14,1.42,19.4,3.55,-1.43,0.53
2022-02-17 5:48:26.8710 p.m.,1.52,-4.29,17.92,2.57,-1.64,-0.02
2022-02-17 5:48:26.8810 p.m.,1.15,-7.27,15.26,1.28,-3.9,0.17
2022-02-17 5:48:26.8900 p.m.,5.36,-6.22,11.91,1.21,-4.34,0.45
2022-02-17 5:48:26.9000 p.m.,8.09,-3.95,6.63,1.48,-4.22,0.54
2022-02-17 5:48:26.9100 p.m.,6.65,-1.57,0.36,1.76,-3.77,0.53
2022-02-17 5:48:26.9200 p.m.,3.46,0.0,-4.15,1.76,-3.77,0.53
2022-02-17 5:48:26.9310 p.m.,0.77,0.3,-6.06,2.1,-1.87,0.11
2022-02-17 5:48:26.9400 p.m.,-0.95,0.55,-6.63,2.1,-1.87,0.11
2022-02-17 5:48:26.9500 p.m.,-1.22,1.95,-6.28,1.2,1.37,-0.24
2022-02-17 5:48:26.9600 p.m.,0.06,3.95,-3.77,0.23,1.63,-0.5
2022-02-17 5:48:26.9710 p.m.,1.42,5.59,0.97,-0.75,1.03,-1.06
2022-02-17 5:48:26.9810 p.m.,1.8,6.87,6.64,-0.75,1.03,-1.06
2022-02-17 5:48:26.9910 p.m.,0.01,7.43,10.14,-1.29,-0.01,-2.15
2022-02-17 5:48:27.0010 p.m.,-1.41,7.64,9.64,-0.82,0.03,-1.93
2022-02-17 5:48:27.0110 p.m.,-0.41,7.34,6.46,-0.17,0.16,-1.48
2022-02-17 5:48:27.0210 p.m.,0.84,5.75,3.15,0.4,0.02,-1.0
2022-02-17 5:48:27.0310 p.m.,1.12,3.12,0.67,0.77,-0.43,-0.63
2022-02-17 5:48:27.0410 p.m.,0.53,0.44,-0.79,0.96,-0.97,-0.35
2022-02-17 5:48:27.0510 p.m.,-0.68,-1.29,-1.95,0.96,-0.97,-0.35
2022-02-17 5:48:27.0610 p.m.,-1.32,-1.99,-2.95,1.13,-1.73,0.07
2022-02-17 5:48:27.0710 p.m.,-0.98,-1.94,-3.7,1.13,-1.73,0.07
2022-02-17 5:48:27.0810 p.m.,0.5,-1.34,-4.09,1.06,-1.81,1.07
2022-02-17 5:48:27.0910 p.m.,3.74,-0.69,-3.92,4.13,4.46,-2.53
2022-02-17 5:48:27.1010 p.m.,4.0,-1.26,-4.15,4.37,6.67,-2.04
2022-02-17 5:48:27.1110 p.m.,10.02,-10.18,-11.25,0.67,6.17,0.2
2022-02-17 5:48:27.1220 p.m.,18.88,2.54,7.65,0.67,6.17,0.2
2022-02-17 5:48:27.1320 p.m.,11.88,8.53,23.17,-2.74,4.9,0.48
2022-02-17 5:48:27.1410 p.m.,-0.12,3.19,17.13,-4.62,4.82,-0.04
2022-02-17 5:48:27.1510 p.m.,-3.63,1.23,7.61,-4.04,4.34,-1.44
2022-02-17 5:48:27.1620 p.m.,-2.84,-0.04,1.36,-2.77,0.53,-1.97
2022-02-17 5:48:27.1710 p.m.,-3.09,-0.25,12.14,-1.06,-3.85,-2.19
2022-02-17 5:48:27.1810 p.m.,-4.0,-0.7,11.2,0.26,-5.17,-1.79
2022-02-17 5:48:27.1910 p.m.,-3.33,0.13,8.96,1.28,-4.13,-0.89
2022-02-17 5:48:27.2010 p.m.,-1.99,1.44,1.17,1.87,-2.93,0.29
2022-02-17 5:48:27.2120 p.m.,2.14,2.01,-1.6,2.1,-2.12,1.13
2022-02-17 5:48:27.2220 p.m.,5.84,1.01,0.22,2.06,-1.77,1.39
2022-02-17 5:48:27.2320 p.m.,5.48,-1.12,0.57,1.79,-1.85,1.16
2022-02-17 5:48:27.2420 p.m.,2.52,-2.52,-0.14,1.4,-2.04,0.83
2022-02-17 5:48:27.2520 p.m.,-0.66,-3.01,-0.89,0.99,-2.18,0.6
2022-02-17 5:48:27.2620 p.m.,-2.34,-2.85,-2.26,0.66,-2.3,0.45
2022-02-17 5:48:27.2720 p.m.,-3.24,-2.52,-3.64,0.42,-2.37,0.4
2022-02-17 5:48:27.2820 p.m.,-4.09,-2.01,-4.65,0.42,-2.37,0.4
2022-02-17 5:48:27.2920 p.m.,-4.4,-0.93,-5.51,0.1,-2.06,0.51
2022-02-17 5:48:27.3020 p.m.,-4.29,0.41,-6.0,-0.02,-1.36,0.55
2022-02-17 5:48:27.3120 p.m.,-4.28,1.32,-6.3,-0.21,-0.4,0.68
2022-02-17 5:48:27.3220 p.m.,-3.63,2.05,-6.22,-0.39,0.75,0.75
2022-02-17 5:48:27.3320 p.m.,-1.93,2.65,-5.35,-0.35,2.22,0.49
2022-02-17 5:48:27.3420 p.m.,-0.37,1.85,-4.29,-0.13,3.27,0.09
2022-02-17 5:48:27.3520 p.m.,0.77,0.27,-3.1,0.03,3.04,-0.17
2022-02-17 5:48:27.3620 p.m.,2.65,-0.68,0.14,-0.02,1.63,-0.28
2022-02-17 5:48:27.3720 p.m.,4.5,-0.87,5.63,-0.21,0.17,-0.34
2022-02-17 5:48:27.3820 p.m.,4.97,-0.66,10.08,-0.35,-0.38,-0.4
2022-02-17 5:48:27.3920 p.m.,3.46,-0.37,9.85,-0.39,-0.62,-0.32
2022-02-17 5:48:27.4020 p.m.,1.1,0.12,5.92,-0.39,-0.62,-0.32
2022-02-17 5:48:27.4120 p.m.,0.08,0.89,3.31,-0.34,-1.28,-0.05
2022-02-17 5:48:27.4220 p.m.,-0.54,1.12,1.87,-0.26,-1.35,0.08
2022-02-17 5:48:27.4320 p.m.,-0.91,1.16,0.45,-0.21,-1.17,0.19
2022-02-17 5:48:27.4420 p.m.,-0.87,1.04,-0.68,-0.18,-0.82,0.23
2022-02-17 5:48:27.4530 p.m.,-0.5,0.8,-1.62,-0.17,-0.52,0.13
2022-02-17 5:48:27.4630 p.m.,-0.61,0.3,-2.49,-0.16,-0.29,-0.01
2022-02-17 5:48:27.4730 p.m.,-1.28,-0.1,-3.11,-0.13,-0.02,-0.08
2022-02-17 5:48:27.4830 p.m.,-1.89,-0.18,-3.68,-0.02,0.36,-0.06
2022-02-17 5:48:27.4930 p.m.,-1.95,-0.11,-4.26,0.14,0.71,-0.0
2022-02-17 5:48:27.5030 p.m.,-1.62,-0.16,-4.54,0.3,0.96,0.05
2022-02-17 5:48:27.5130 p.m.,-1.35,-0.25,-4.09,0.42,1.18,0.05
2022-02-17 5:48:27.5230 p.m.,-1.62,-0.21,-3.42,0.52,1.4,0.01
2022-02-17 5:48:27.5330 p.m.,-2.2,-0.23,-3.09,0.56,1.53,-0.01
2022-02-17 5:48:27.5430 p.m.,-2.39,-0.7,-2.84,0.5,1.7,-0.04
2022-02-17 5:48:27.5530 p.m.,-1.67,-1.52,-2.19,1.3,3.5,-0.87
2022-02-17 5:48:27.5630 p.m.,0.07,-2.3,-1.15,0.63,2.98,-0.43
2022-02-17 5:48:27.5730 p.m.,3.78,-4.19,-2.84,0.05,3.22,-0.36
2022-02-17 5:48:27.5830 p.m.,6.11,-0.4,4.1,-0.56,2.62,-0.42
2022-02-17 5:48:27.5930 p.m.,3.42,0.37,4.76,-0.79,1.68,-0.59
2022-02-17 5:48:27.6030 p.m.,1.64,-0.19,5.73,-0.75,0.86,-0.57
2022-02-17 5:48:27.6130 p.m.,0.91,-0.41,5.11,-0.62,0.25,-0.43
2022-02-17 5:48:27.6230 p.m.,0.72,0.62,3.47,-0.46,-0.14,-0.23
2022-02-17 5:48:27.6330 p.m.,0.55,1.36,2.38,-0.32,-0.41,-0.08
2022-02-17 5:48:27.6430 p.m.,0.32,1.42,1.63,-0.28,-0.55,-0.02
2022-02-17 5:48:27.6540 p.m.,0.22,0.95,1.04,-0.28,-0.54,-0.06
2022-02-17 5:48:27.6630 p.m.,-0.02,0.38,0.4,-0.3,-0.42,-0.15
2022-02-17 5:48:27.6680 p.m.,-0.3,-0.12,-0.15,-0.3,-0.42,-0.15
2022-02-17 5:48:27.6820 p.m.,-0.36,-0.43,-0.66,-0.34,-0.0,-0.26
2022-02-17 5:48:27.6940 p.m.,-0.36,-0.56,-0.96,-0.29,0.22,-0.24
2022-02-17 5:48:27.7040 p.m.,-0.38,-0.65,-1.32,-0.22,0.36,-0.2
2022-02-17 5:48:27.7130 p.m.,-0.36,-0.63,-1.3,-0.16,0.44,-0.21
2022-02-17 5:48:27.7240 p.m.,-0.51,-0.64,-0.74,-0.14,0.46,-0.19
2022-02-17 5:48:27.7340 p.m.,-0.91,-0.6,-0.02,-0.13,0.46,-0.18
2022-02-17 5:48:27.7440 p.m.,-0.93,-0.39,0.53,-0.13,0.43,-0.14
2022-02-17 5:48:27.7540 p.m.,-0.94,-0.15,0.73,-0.09,0.39,-0.11
2022-02-17 5:48:27.7640 p.m.,-0.65,0.1,0.75,-0.06,0.33,-0.07
2022-02-17 5:48:27.7740 p.m.,-0.31,0.34,0.55,-0.03,0.29,-0.03
2022-02-17 5:48:27.7840 p.m.,-0.02,0.51,0.33,-0.03,0.27,-0.0
2022-02-17 5:48:27.7940 p.m.,0.15,0.52,0.18,-0.04,0.25,0.01
2022-02-17 5:48:27.8040 p.m.,0.16,0.36,0.24,-0.06,0.23,0.0
2022-02-17 5:48:27.8140 p.m.,0.02,-0.04,0.37,-0.06,0.23,0.0
2022-02-17 5:48:27.8240 p.m.,-0.07,-0.14,0.29,-0.06,0.23,0.0
2022-02-17 5:48:27.8340 p.m.,0.0,-0.09,0.07,-0.07,0.23,0.0
2022-02-17 5:48:27.8440 p.m.,0.11,-0.11,0.01,-0.08,0.2,0.01
2022-02-17 5:48:27.8540 p.m.,0.14,-0.08,0.16,-0.1,0.12,0.02
2022-02-17 5:48:27.8640 p.m.,0.13,-0.02,0.47,-0.11,-0.0,0.02
2022-02-17 5:48:27.8740 p.m.,0.06,0.05,0.78,-0.1,-0.13,0.02
2022-02-17 5:48:27.8840 p.m.,-0.09,0.13,0.9,-0.07,-0.25,0.03
2022-02-17 5:48:27.8940 p.m.,-0.23,0.24,0.77,-0.02,-0.34,0.04
2022-02-17 5:48:27.9040 p.m.,-0.2,0.21,0.52,0.0,-0.41,0.05
2022-02-17 5:48:27.9140 p.m.,-0.11,0.03,0.36,0.0,-0.43,0.06
2022-02-17 5:48:27.9240 p.m.,-0.09,-0.05,0.31,-0.01,-0.43,0.07
2022-02-17 5:48:27.9350 p.m.,-0.03,-0.13,0.29,-0.02,-0.37,0.07
2022-02-17 5:48:27.9450 p.m.,0.02,-0.24,0.11,-0.01,-0.28,0.08
2022-02-17 5:48:27.9540 p.m.,0.02,-0.18,-0.22,-0.01,-0.2,0.07
2022-02-17 5:48:27.9640 p.m.,0.1,-0.14,-0.51,0.01,-0.13,0.05
2022-02-17 5:48:27.9750 p.m.,0.07,-0.25,-0.59,0.02,-0.1,0.04
2022-02-17 5:48:27.9850 p.m.,-0.02,-0.49,-0.5,0.02,-0.04,0.03
2022-02-17 5:48:27.9950 p.m.,0.08,-0.5,-0.37,0.01,0.02,0.04
2022-02-17 5:48:28.0050 p.m.,0.09,-0.39,-0.32,-0.01,0.06,0.05
2022-02-17 5:48:28.0150 p.m.,0.2,-0.19,-0.21,-0.02,0.09,0.07
2022-02-17 5:48:28.0250 p.m.,0.27,-0.02,-0.05,-0.02,0.08,0.09
2022-02-17 5:48:28.0350 p.m.,0.26,0.04,0.06,-0.02,0.09,0.1
2022-02-17 5:48:28.0450 p.m.,0.29,0.12,0.05,-0.02,0.12,0.11
2022-02-17 5:48:28.0550 p.m.,0.12,0.13,-0.04,-0.04,0.21,0.12
2022-02-17 5:48:28.0650 p.m.,0.14,0.0,-0.16,-0.06,0.33,0.12
2022-02-17 5:48:28.0750 p.m.,0.24,-0.16,-0.36,-0.07,0.43,0.13
2022-02-17 5:48:28.0850 p.m.,0.21,-0.19,-0.53,-0.05,0.46,0.14
2022-02-17 5:48:28.0950 p.m.,0.33,-0.13,-0.54,-0.01,0.42,0.11
2022-02-17 5:48:28.1050 p.m.,0.3,0.02,-0.37,0.03,0.36,0.09
2022-02-17 5:48:28.1150 p.m.,0.07,0.18,-0.17,0.06,0.32,0.09
2022-02-17 5:48:28.1250 p.m.,0.08,0.25,-0.07,0.08,0.29,0.09
2022-02-17 5:48:28.1350 p.m.,0.07,0.2,-0.06,0.08,0.31,0.1
2022-02-17 5:48:28.1460 p.m.,0.04,0.15,-0.03,0.08,0.36,0.11
2022-02-17 5:48:28.1560 p.m.,0.19,0.08,-0.08,0.07,0.41,0.12
2022-02-17 5:48:28.1660 p.m.,0.21,-0.05,-0.2,0.06,0.46,0.12
2022-02-17 5:48:28.1760 p.m.,0.16,-0.13,-0.24,0.04,0.54,0.11
2022-02-17 5:48:28.1860 p.m.,0.18,-0.18,-0.27,0.03,0.63,0.1
2022-02-17 5:48:28.1960 p.m.,0.15,-0.27,-0.38,0.02,0.7,0.09
2022-02-17 5:48:28.2060 p.m.,0.1,-0.36,-0.44,0.02,0.7,0.09
2022-02-17 5:48:28.2160 p.m.,0.0,-0.38,-0.37,0.01,0.76,0.11
2022-02-17 5:48:28.2260 p.m.,0.03,-0.26,-0.11,0.02,0.72,0.15
2022-02-17 5:48:28.2360 p.m.,0.02,-0.13,0.2,0.01,0.65,0.18
2022-02-17 5:48:28.2460 p.m.,0.02,-0.01,0.45,0.01,0.57,0.2
2022-02-17 5:48:28.2560 p.m.,0.13,0.1,0.62,-0.01,0.5,0.21
2022-02-17 5:48:28.2660 p.m.,0.14,0.16,0.63,-0.02,0.5,0.22
2022-02-17 5:48:28.2760 p.m.,0.19,0.15,0.45,-0.04,0.51,0.22
2022-02-17 5:48:28.2860 p.m.,0.21,-0.01,0.16,-0.04,0.51,0.22
2022-02-17 5:48:28.2960 p.m.,0.2,-0.24,-0.04,-0.02,0.46,0.21
2022-02-17 5:48:28.3060 p.m.,0.13,-0.4,-0.05,0.01,0.33,0.2
2022-02-17 5:48:28.3160 p.m.,0.13,-0.46,0.14,0.03,0.19,0.2
2022-02-17 5:48:28.3260 p.m.,0.05,-0.43,0.43,0.03,0.19,0.2
2022-02-17 5:48:28.3360 p.m.,0.18,-0.33,0.61,0.03,-0.08,0.2
2022-02-17 5:48:28.3460 p.m.,0.34,-0.27,0.66,0.01,-0.17,0.19
2022-02-17 5:48:28.3570 p.m.,0.45,-0.26,0.56,-0.03,-0.24,0.15
2022-02-17 5:48:28.3660 p.m.,0.53,-0.36,0.43,-0.08,-0.29,0.12
2022-02-17 5:48:28.3760 p.m.,0.66,-0.53,0.36,-0.15,-0.31,0.11
2022-02-17 5:48:28.3860 p.m.,0.79,-0.66,0.3,-0.24,-0.31,0.12
2022-02-17 5:48:28.3970 p.m.,0.88,-0.74,0.34,-0.33,-0.31,0.11
2022-02-17 5:48:28.4070 p.m.,0.83,-0.8,0.35,-0.33,-0.31,0.11
2022-02-17 5:48:28.4170 p.m.,0.73,-0.7,0.24,-0.41,-0.36,0.1
2022-02-17 5:48:28.4270 p.m.,0.59,-0.41,0.2,-0.58,-0.62,0.08
2022-02-17 5:48:28.4370 p.m.,0.27,-0.11,0.14,-0.65,-0.77,0.07
2022-02-17 5:48:28.4470 p.m.,-0.09,0.17,0.07,-0.64,-0.77,0.04
2022-02-17 5:48:28.4570 p.m.,-0.35,0.2,-0.03,-0.36,-0.19,0.06
2022-02-17 5:48:28.4670 p.m.,-0.52,-0.01,-0.37,-0.44,-0.32,0.08
2022-02-17 5:48:28.4770 p.m.,-0.04,-0.07,0.21,-0.45,-0.3,0.06
2022-02-17 5:48:28.4870 p.m.,-0.5,-0.28,2.35,-0.41,-0.16,0.09
2022-02-17 5:48:28.4970 p.m.,-0.67,-0.37,1.99,-0.41,-0.16,0.09
2022-02-17 5:48:28.5070 p.m.,-0.25,-0.24,1.9,-0.28,-0.06,0.2
2022-02-17 5:48:28.5170 p.m.,-0.13,-0.11,2.07,-0.24,-0.05,0.22
2022-02-17 5:48:28.5270 p.m.,-0.13,0.08,2.11,-0.2,-0.03,0.25
2022-02-17 5:48:28.5370 p.m.,-0.1,0.26,1.95,-0.16,0.02,0.28
2022-02-17 5:48:28.5470 p.m.,0.11,0.27,1.62,-0.12,0.13,0.3
2022-02-17 5:48:28.5570 p.m.,0.43,-0.01,1.2,-0.09,0.28,0.33
2022-02-17 5:48:28.5670 p.m.,0.71,-0.44,0.82,-0.11,0.39,0.34
2022-02-17 5:48:28.5770 p.m.,0.87,-0.8,0.7,-0.14,0.42,0.32
2022-02-17 5:48:28.5870 p.m.,0.94,-0.93,0.9,-0.18,0.41,0.3
2022-02-17 5:48:28.5970 p.m.,1.02,-0.78,1.12,-0.21,0.36,0.28
2022-02-17 5:48:28.6080 p.m.,1.09,-0.5,1.23,-0.21,0.36,0.28
2022-02-17 5:48:28.6180 p.m.,1.18,-0.32,1.19,-0.34,0.31,0.25
2022-02-17 5:48:28.6280 p.m.,1.08,-0.3,1.1,-0.39,0.24,0.24
2022-02-17 5:48:28.6380 p.m.,1.01,-0.42,1.21,-0.45,0.23,0.25
2022-02-17 5:48:28.6480 p.m.,1.0,-0.4,0.98,-0.49,0.26,0.25
2022-02-17 5:48:28.6580 p.m.,0.99,-0.29,0.78,-0.53,0.3,0.24
2022-02-17 5:48:28.6680 p.m.,0.84,-0.07,0.71,-0.55,0.38,0.23
2022-02-17 5:48:28.6780 p.m.,0.68,0.17,0.81,-0.58,0.53,0.21
2022-02-17 5:48:28.6880 p.m.,0.55,0.24,0.96,-0.58,0.66,0.19
2022-02-17 5:48:28.6980 p.m.,0.43,0.14,1.06,-0.58,0.66,0.19
2022-02-17 5:48:28.7080 p.m.,0.39,0.11,1.33,-0.62,0.59,0.14
2022-02-17 5:48:28.7180 p.m.,0.46,0.12,1.68,-0.65,0.54,0.15
2022-02-17 5:48:28.7280 p.m.,0.59,0.12,1.79,-0.65,0.54,0.15
2022-02-17 5:48:28.7380 p.m.,0.83,0.08,1.42,-0.65,0.71,0.16
2022-02-17 5:48:28.7480 p.m.,0.87,-0.15,0.96,-0.69,0.83,0.13
2022-02-17 5:48:28.7580 p.m.,0.7,-0.36,0.69,-0.76,0.93,0.09
2022-02-17 5:48:28.7680 p.m.,0.62,-0.44,0.51,-0.86,1.04,0.04
2022-02-17 5:48:28.7780 p.m.,0.65,-0.32,0.47,-0.98,1.08,-0.03
2022-02-17 5:48:28.7880 p.m.,0.45,-0.09,0.66,-1.07,1.0,-0.09
2022-02-17 5:48:28.7980 p.m.,0.48,0.06,1.23,-1.09,0.88,-0.13
2022-02-17 5:48:28.8080 p.m.,0.7,0.22,1.49,-1.08,0.77,-0.15
2022-02-17 5:48:28.8180 p.m.,0.78,0.26,1.38,-1.01,0.67,-0.11
2022-02-17 5:48:28.8280 p.m.,0.79,0.15,1.08,-0.92,0.62,-0.02
2022-02-17 5:48:28.8380 p.m.,0.78,-0.08,0.58,-0.83,0.61,0.07
2022-02-17 5:48:28.8480 p.m.,0.81,-0.36,0.1,-0.83,0.61,0.07
2022-02-17 5:48:28.8590 p.m.,0.72,-0.53,-0.12,-0.73,0.61,0.19
2022-02-17 5:48:28.8690 p.m.,0.4,-0.38,0.0,-0.7,0.64,0.23
2022-02-17 5:48:28.8790 p.m.,0.11,0.05,0.31,-0.65,0.65,0.24
2022-02-17 5:48:28.8890 p.m.,-0.19,0.39,0.55,-0.61,0.66,0.24
2022-02-17 5:48:28.8990 p.m.,-0.42,0.52,0.71,-0.56,0.62,0.24
2022-02-17 5:48:28.9090 p.m.,-0.53,0.49,0.78,-0.54,0.54,0.24
2022-02-17 5:48:28.9190 p.m.,-0.49,0.29,0.8,-0.53,0.46,0.23
2022-02-17 5:48:28.9290 p.m.,-0.32,0.0,0.7,-0.53,0.35,0.21
2022-02-17 5:48:28.9390 p.m.,-0.12,-0.41,0.44,-0.57,0.22,0.19
2022-02-17 5:48:28.9490 p.m.,0.08,-0.78,0.41,-0.63,0.12,0.22
2022-02-17 5:48:28.9590 p.m.,0.27,-0.89,0.32,-0.69,0.06,0.27
2022-02-17 5:48:28.9690 p.m.,0.49,-0.82,0.11,-0.73,0.05,0.33
2022-02-17 5:48:28.9790 p.m.,0.65,-0.66,-0.15,-0.73,0.05,0.33
2022-02-17 5:48:28.9890 p.m.,0.62,-0.47,-0.45,-0.74,0.13,0.36
2022-02-17 5:48:28.9990 p.m.,0.37,-0.31,-0.66,-0.75,0.12,0.32
2022-02-17 5:48:29.0090 p.m.,0.07,-0.14,-0.57,-0.78,0.15,0.27
2022-02-17 5:48:29.0190 p.m.,-0.33,0.09,-0.58,-0.84,0.18,0.21
2022-02-17 5:48:29.0290 p.m.,-0.73,0.37,-0.51,-0.92,0.2,0.15
2022-02-17 5:48:29.0390 p.m.,-1.11,0.76,-0.23,-0.96,0.22,0.11
2022-02-17 5:48:29.0490 p.m.,-1.3,1.26,0.07,-0.94,0.2,0.1
2022-02-17 5:48:29.0590 p.m.,-1.26,1.45,0.16,-0.94,0.2,0.1
2022-02-17 5:48:29.0690 p.m.,-1.16,1.43,0.19,-0.79,0.09,0.1
2022-02-17 5:48:29.0790 p.m.,-1.04,1.41,0.25,-0.71,0.03,0.12
2022-02-17 5:48:29.0890 p.m.,-0.94,1.49,0.21,-0.67,-0.02,0.17
2022-02-17 5:48:29.0990 p.m.,-0.88,1.55,0.02,-0.68,-0.1,0.23
2022-02-17 5:48:29.1100 p.m.,-0.85,1.49,-0.13,-0.71,-0.21,0.29
2022-02-17 5:48:29.1200 p.m.,-0.72,1.2,-0.18,-0.73,-0.39,0.35
2022-02-17 5:48:29.1300 p.m.,-0.6,0.76,-0.19,-0.74,-0.5,0.4
2022-02-17 5:48:29.1400 p.m.,-0.6,0.41,-0.32,-0.73,-0.56,0.41
2022-02-17 5:48:29.1500 p.m.,-0.69,0.13,-0.75,-0.72,-0.57,0.39
2022-02-17 5:48:29.1600 p.m.,-0.89,0.12,-1.0,-0.74,-0.59,0.34
2022-02-17 5:48:29.1700 p.m.,-1.16,0.23,-1.13,-0.8,-0.65,0.33
2022-02-17 5:48:29.1800 p.m.,-1.22,0.13,-0.9,-0.83,-0.65,0.37
2022-02-17 5:48:29.1900 p.m.,-0.85,-0.06,-0.58,-0.85,-0.54,0.47
2022-02-17 5:48:29.2000 p.m.,-0.37,-0.35,-0.41,-0.8,-0.3,0.58
2022-02-17 5:48:29.2100 p.m.,-0.01,-0.73,-0.48,-0.7,0.05,0.64
2022-02-17 5:48:29.2200 p.m.,0.08,-0.86,-0.69,-0.59,0.38,0.6
2022-02-17 5:48:29.2300 p.m.,-0.3,-0.62,-0.76,-0.56,0.5,0.51
2022-02-17 5:48:29.2400 p.m.,-0.97,0.15,-0.43,-0.58,0.36,0.42
2022-02-17 5:48:29.2500 p.m.,-1.38,1.13,0.54,-0.6,0.06,0.35
2022-02-17 5:48:29.2600 p.m.,-1.51,1.82,1.42,-0.56,-0.32,0.37
2022-02-17 5:48:29.2700 p.m.,-1.22,2.05,2.02,-0.43,-0.69,0.49
2022-02-17 5:48:29.2800 p.m.,0.05,1.71,2.52,-0.22,-0.88,0.64
2022-02-17 5:48:29.2910 p.m.,1.58,0.9,2.76,0.02,-0.87,0.75
2022-02-17 5:48:29.3010 p.m.,2.49,0.03,2.45,0.23,-0.9,0.83
2022-02-17 5:48:29.3110 p.m.,2.82,-0.43,1.91,0.38,-0.93,0.89
2022-02-17 5:48:29.3200 p.m.,2.64,-0.43,1.08,0.53,-0.73,0.93
2022-02-17 5:48:29.3310 p.m.,2.09,-0.14,-0.26,0.64,-0.42,0.87
2022-02-17 5:48:29.3410 p.m.,1.22,0.16,-1.89,0.65,-0.26,0.74
2022-02-17 5:48:29.3610 p.m.,-0.34,0.05,-3.12,0.6,-0.24,0.64
2022-02-17 5:48:29.3610 p.m.,-0.34,0.05,-3.12,0.48,-0.34,0.57
2022-02-17 5:48:29.3820 p.m.,-0.41,0.21,-2.83,0.29,-0.51,0.51
2022-02-17 5:48:29.3820 p.m.,-0.41,0.21,-2.83,0.1,-0.7,0.4
2022-02-17 5:48:29.3910 p.m.,-0.54,0.21,-2.32,-0.07,-0.73,0.31
2022-02-17 5:48:29.4010 p.m.,-0.64,0.29,-1.76,-0.25,-0.69,0.29
2022-02-17 5:48:29.4110 p.m.,-0.3,0.54,-1.56,-0.39,-0.55,0.35
2022-02-17 5:48:29.4210 p.m.,0.28,0.65,-1.4,-0.46,-0.41,0.37
2022-02-17 5:48:29.4310 p.m.,0.25,0.59,-1.68,-0.48,-0.38,0.31
2022-02-17 5:48:29.4410 p.m.,-0.21,0.38,-1.73,-0.47,-0.46,0.24
2022-02-17 5:48:29.4510 p.m.,-0.51,0.27,-1.48,-0.45,-0.54,0.22
2022-02-17 5:48:29.4610 p.m.,-0.54,0.4,-1.08,-0.38,-0.48,0.21
2022-02-17 5:48:29.4710 p.m.,-0.6,0.55,-0.8,-0.31,-0.25,0.21
2022-02-17 5:48:29.4810 p.m.,-0.98,0.52,-0.7,-0.22,0.03,0.22
2022-02-17 5:48:29.4910 p.m.,-1.44,0.37,-0.59,-0.11,0.27,0.21
2022-02-17 5:48:29.5010 p.m.,-1.7,0.16,-0.36,0.01,0.36,0.19
2022-02-17 5:48:29.5120 p.m.,-1.43,-0.1,0.0,0.13,0.34,0.18
2022-02-17 5:48:29.5210 p.m.,-0.85,-0.27,0.41,0.21,0.39,0.15
2022-02-17 5:48:29.5320 p.m.,-0.33,-0.54,0.51,0.24,0.51,0.13
2022-02-17 5:48:29.5420 p.m.,-0.24,-0.69,0.22,0.26,0.66,0.12
2022-02-17 5:48:29.5520 p.m.,-0.19,-0.52,-0.04,0.27,0.77,0.12
2022-02-17 5:48:29.5620 p.m.,-0.24,-0.31,-0.2,0.27,0.78,0.12
2022-02-17 5:48:29.5720 p.m.,-0.05,-0.02,-0.17,0.24,0.71,0.07
2022-02-17 5:48:29.5820 p.m.,-0.01,0.01,0.08,0.21,0.64,-0.02
2022-02-17 5:48:29.5920 p.m.,-0.06,-0.09,0.3,0.14,0.6,-0.09
2022-02-17 5:48:29.6020 p.m.,0.12,-0.26,0.42,0.14,0.6,-0.09
2022-02-17 5:48:29.6120 p.m.,0.55,-0.49,0.37,0.0,0.54,-0.13
2022-02-17 5:48:29.6220 p.m.,1.1,-0.45,0.22,-0.07,0.53,-0.11
2022-02-17 5:48:29.6320 p.m.,1.18,-0.28,-0.19,-0.15,0.39,-0.08
2022-02-17 5:48:29.6420 p.m.,0.78,-0.22,-0.34,-0.21,0.22,-0.07
2022-02-17 5:48:29.6520 p.m.,0.26,-0.47,-0.09,-0.29,0.11,-0.06
2022-02-17 5:48:29.6620 p.m.,0.1,-0.77,0.12,-0.37,0.07,-0.08
2022-02-17 5:48:29.6720 p.m.,0.43,-0.99,0.34,-0.43,0.06,-0.12
2022-02-17 5:48:29.6820 p.m.,0.99,-1.1,0.68,-0.47,0.07,-0.16
2022-02-17 5:48:29.6920 p.m.,1.64,-0.9,0.97,-0.46,0.17,-0.19
2022-02-17 5:48:29.7020 p.m.,2.05,-0.48,0.89,-0.44,0.31,-0.18
2022-02-17 5:48:29.7120 p.m.,1.58,-0.11,0.33,-0.38,0.34,-0.14
2022-02-17 5:48:29.7220 p.m.,0.46,0.19,-0.14,-0.25,0.22,-0.07
2022-02-17 5:48:29.7320 p.m.,-0.38,0.48,-0.26,-0.1,0.07,-0.03
2022-02-17 5:48:29.7420 p.m.,-0.75,0.78,-0.32,0.07,0.05,0.02
2022-02-17 5:48:29.7520 p.m.,-0.91,1.14,-0.56,0.2,0.19,0.03
2022-02-17 5:48:29.7620 p.m.,-0.39,1.34,-0.89,0.25,0.36,0.01
2022-02-17 5:48:29.7730 p.m.,-0.17,1.28,-1.11,0.21,0.4,-0.0
2022-02-17 5:48:29.7830 p.m.,-0.16,1.02,-0.89,0.13,0.33,-0.0
2022-02-17 5:48:29.7930 p.m.,-0.14,0.76,-0.46,0.03,0.23,0.01
2022-02-17 5:48:29.8030 p.m.,-0.16,0.47,-0.42,-0.1,0.1,0.04
2022-02-17 5:48:29.8130 p.m.,-0.26,0.29,-0.6,-0.26,-0.06,0.08
2022-02-17 5:48:29.8230 p.m.,-0.13,0.44,-0.39,-0.41,-0.17,0.08
2022-02-17 5:48:29.8330 p.m.,0.42,0.57,0.08,-0.51,-0.13,0.03
2022-02-17 5:48:29.8430 p.m.,1.05,0.61,0.39,-0.55,-0.05,-0.03
2022-02-17 5:48:29.8530 p.m.,1.25,0.66,0.37,-0.51,0.01,-0.07
2022-02-17 5:48:29.8630 p.m.,1.1,0.8,0.28,-0.45,-0.02,-0.1
2022-02-17 5:48:29.8730 p.m.,0.57,0.94,0.24,-0.4,-0.06,-0.1
2022-02-17 5:48:29.8830 p.m.,-0.18,0.94,0.33,-0.4,-0.06,-0.1
2022-02-17 5:48:29.8930 p.m.,-0.82,0.91,0.38,-0.29,-0.12,-0.03
2022-02-17 5:48:29.9030 p.m.,-0.92,0.88,0.33,-0.23,-0.13,0.0
2022-02-17 5:48:29.9130 p.m.,-0.69,0.87,0.13,-0.23,-0.13,0.0
2022-02-17 5:48:29.9230 p.m.,-0.51,1.28,0.13,-0.18,-0.11,0.03
2022-02-17 5:48:29.9330 p.m.,-0.31,1.73,0.26,-0.22,-0.05,0.01
2022-02-17 5:48:29.9430 p.m.,-0.23,1.75,0.47,-0.27,-0.0,-0.02
2022-02-17 5:48:29.9530 p.m.,-0.11,1.33,0.71,-0.31,0.04,-0.07
2022-02-17 5:48:29.9630 p.m.,0.15,0.72,0.71,-0.33,0.07,-0.1
2022-02-17 5:48:29.9730 p.m.,0.24,0.15,0.51,-0.38,0.04,-0.09
2022-02-17 5:48:29.9830 p.m.,0.19,-0.3,0.45,-0.47,-0.03,-0.05
2022-02-17 5:48:29.9930 p.m.,0.21,-0.67,0.69,-0.59,-0.07,0.03
2022-02-17 5:48:30.0040 p.m.,0.25,-1.05,1.15,-0.73,0.03,0.11
2022-02-17 5:48:30.0140 p.m.,0.11,-1.56,1.51,-0.81,0.19,0.16
2022-02-17 5:48:30.0240 p.m.,-0.35,-2.13,1.56,-0.8,0.31,0.17
2022-02-17 5:48:30.0340 p.m.,-0.7,-2.13,1.46,-0.73,0.41,0.18
2022-02-17 5:48:30.0440 p.m.,-0.59,-1.49,1.2,-0.63,0.46,0.2
2022-02-17 5:48:30.0540 p.m.,-0.49,-0.94,0.81,-0.55,0.48,0.23
2022-02-17 5:48:30.0640 p.m.,-0.23,-0.62,0.73,-0.47,0.47,0.28
2022-02-17 5:48:30.0740 p.m.,0.21,-0.36,0.89,-0.42,0.45,0.31
2022-02-17 5:48:30.0840 p.m.,0.55,-0.32,1.06,-0.39,0.41,0.3
2022-02-17 5:48:30.0940 p.m.,0.8,-0.39,1.1,-0.39,0.38,0.25
2022-02-17 5:48:30.1040 p.m.,1.0,-0.45,1.03,-0.42,0.39,0.15
2022-02-17 5:48:30.1140 p.m.,1.16,-0.51,0.9,-0.48,0.45,0.03
2022-02-17 5:48:30.1240 p.m.,1.2,-0.63,0.7,-0.58,0.53,-0.1
2022-02-17 5:48:30.1340 p.m.,0.98,-0.87,0.51,-0.69,0.57,-0.22
2022-02-17 5:48:30.1440 p.m.,0.66,-1.02,0.43,-0.75,0.55,-0.3
2022-02-17 5:48:30.1540 p.m.,0.38,-0.95,0.27,-0.76,0.41,-0.36
2022-02-17 5:48:30.1640 p.m.,0.28,-0.7,0.04,-0.72,0.17,-0.41
2022-02-17 5:48:30.1740 p.m.,0.14,-0.35,-0.01,-0.64,-0.11,-0.42
2022-02-17 5:48:30.1840 p.m.,-0.14,0.1,0.04,-0.64,-0.11,-0.42
2022-02-17 5:48:30.1940 p.m.,-0.45,0.69,-0.05,-0.38,-0.37,-0.37
2022-02-17 5:48:30.2040 p.m.,-0.79,1.22,-0.36,-0.27,-0.33,-0.31
2022-02-17 5:48:30.2140 p.m.,-1.12,1.41,-0.56,-0.21,-0.27,-0.22
2022-02-17 5:48:30.2240 p.m.,-1.63,1.41,-0.43,-0.14,-0.25,-0.13
2022-02-17 5:48:30.2340 p.m.,-2.06,1.34,-0.03,-0.14,-0.25,-0.13
2022-02-17 5:48:30.2450 p.m.,-2.11,1.3,0.27,-0.05,-0.27,-0.01
2022-02-17 5:48:30.2550 p.m.,-1.89,1.21,0.31,-0.03,-0.29,0.01
2022-02-17 5:48:30.2650 p.m.,-1.47,1.06,0.22,-0.05,-0.33,0.01
2022-02-17 5:48:30.2750 p.m.,-0.99,0.92,0.05,-0.08,-0.34,0.02
2022-02-17 5:48:30.2850 p.m.,-0.61,0.79,-0.14,-0.1,-0.29,0.03
2022-02-17 5:48:30.2950 p.m.,-0.53,0.76,-0.44,-0.1,-0.2,0.06
2022-02-17 5:48:30.3050 p.m.,-0.86,0.85,-0.78,-0.08,-0.15,0.11
2022-02-17 5:48:30.3150 p.m.,-1.36,0.97,-0.94,-0.06,-0.16,0.13
2022-02-17 5:48:30.3250 p.m.,-1.6,1.18,-0.79,-0.04,-0.17,0.12
2022-02-17 5:48:30.3350 p.m.,-1.61,1.28,-0.67,-0.07,-0.19,0.08
2022-02-17 5:48:30.3450 p.m.,-1.43,1.23,-0.62,-0.13,-0.26,0.04
2022-02-17 5:48:30.3550 p.m.,-0.96,1.15,-0.34,-0.23,-0.39,0.01
2022-02-17 5:48:30.3650 p.m.,-0.22,0.98,0.12,-0.35,-0.49,-0.0
2022-02-17 5:48:30.3750 p.m.,0.52,0.66,0.52,-0.46,-0.55,-0.01
2022-02-17 5:48:30.3850 p.m.,0.89,0.24,0.86,-0.54,-0.57,-0.01
2022-02-17 5:48:30.3950 p.m.,0.9,0.01,1.21,-0.57,-0.54,-0.02
2022-02-17 5:48:30.4050 p.m.,0.61,0.04,1.47,-0.57,-0.54,-0.02
2022-02-17 5:48:30.4150 p.m.,0.29,0.31,1.59,-0.54,-0.3,-0.06
2022-02-17 5:48:30.4250 p.m.,0.05,0.67,1.61,-0.49,-0.17,-0.08
2022-02-17 5:48:30.4350 p.m.,-0.11,0.99,1.47,-0.43,-0.15,-0.08
2022-02-17 5:48:30.4450 p.m.,-0.15,1.21,1.33,-0.36,-0.19,-0.08
2022-02-17 5:48:30.4550 p.m.,-0.09,1.29,1.33,-0.29,-0.25,-0.09
2022-02-17 5:48:30.4650 p.m.,-0.13,1.04,1.29,-0.29,-0.25,-0.09
2022-02-17 5:48:30.4750 p.m.,0.0,0.74,1.15,-0.19,-0.22,-0.08
2022-02-17 5:48:30.4850 p.m.,0.23,0.44,0.95,-0.19,-0.22,-0.08
2022-02-17 5:48:30.4960 p.m.,0.42,0.28,0.87,-0.17,-0.18,-0.09
2022-02-17 5:48:30.5060 p.m.,0.52,0.29,0.8,-0.18,-0.14,-0.11
2022-02-17 5:48:30.5160 p.m.,0.4,0.42,0.64,-0.18,-0.05,-0.12
2022-02-17 5:48:30.5260 p.m.,0.27,0.55,0.34,-0.18,-0.05,-0.12
2022-02-17 5:48:30.5360 p.m.,0.19,0.79,-0.25,-0.14,0.32,-0.14
2022-02-17 5:48:30.5460 p.m.,0.04,0.84,-0.95,-0.12,0.42,-0.16
2022-02-17 5:48:30.5560 p.m.,-0.15,0.73,-1.3,-0.06,0.44,-0.19
2022-02-17 5:48:30.5660 p.m.,-0.3,0.42,-1.47,-0.0,0.32,-0.17
2022-02-17 5:48:30.5760 p.m.,-0.45,-0.31,-1.59,0.03,0.12,-0.12
2022-02-17 5:48:30.5860 p.m.,-0.11,-0.92,-1.28,-0.03,-0.09,-0.04
2022-02-17 5:48:30.5960 p.m.,0.32,-1.33,-1.01,-0.13,-0.27,0.05
2022-02-17 5:48:30.6060 p.m.,0.77,-1.82,-0.9,-0.24,-0.39,0.13
2022-02-17 5:48:30.6160 p.m.,1.25,-2.14,-1.05,-0.3,-0.45,0.15
2022-02-17 5:48:30.6260 p.m.,1.73,-2.17,-1.41,-0.34,-0.41,0.11
2022-02-17 5:48:30.6360 p.m.,1.93,-1.96,-1.84,-0.36,-0.3,0.04
2022-02-17 5:48:30.6460 p.m.,1.8,-1.77,-2.13,-0.41,-0.17,-0.07
2022-02-17 5:48:30.6560 p.m.,1.53,-1.8,-2.04,-0.48,-0.02,-0.2
2022-02-17 5:48:30.6660 p.m.,1.2,-2.08,-1.75,-0.57,0.19,-0.35
2022-02-17 5:48:30.6770 p.m.,0.94,-2.56,-1.72,-0.67,0.45,-0.49
2022-02-17 5:48:30.6860 p.m.,0.82,-3.15,-1.88,-0.83,0.78,-0.6
2022-02-17 5:48:30.6970 p.m.,0.69,-3.63,-2.03,-1.06,1.1,-0.63
2022-02-17 5:48:30.7060 p.m.,0.72,-3.86,-2.21,-1.35,1.32,-0.6
2022-02-17 5:48:30.7160 p.m.,1.08,-3.81,-2.05,-1.7,1.35,-0.57
2022-02-17 5:48:30.7260 p.m.,1.56,-3.66,-1.45,-2.05,1.32,-0.62
2022-02-17 5:48:30.7360 p.m.,1.96,-3.56,-0.72,-2.39,1.33,-0.73
2022-02-17 5:48:30.7470 p.m.,1.76,-3.35,-0.45,-2.71,1.2,-0.91
2022-02-17 5:48:30.7570 p.m.,1.49,-2.69,-0.19,-2.94,1.09,-1.14
2022-02-17 5:48:30.7670 p.m.,1.03,-1.9,0.41,-3.07,1.16,-1.35
2022-02-17 5:48:30.7770 p.m.,0.36,-1.12,-0.08,-3.13,1.33,-1.51
2022-02-17 5:48:30.7870 p.m.,-0.03,-0.51,-0.88,-3.16,1.49,-1.62
2022-02-17 5:48:30.7970 p.m.,-0.18,-0.33,-1.32,-3.26,1.64,-1.7
2022-02-17 5:48:30.8070 p.m.,-0.28,-0.52,-1.24,-3.37,1.64,-1.82
2022-02-17 5:48:30.8170 p.m.,-0.41,-1.15,-1.03,-3.45,1.43,-1.92
2022-02-17 5:48:30.8270 p.m.,-0.2,-2.05,-0.55,-3.51,1.03,-1.98
2022-02-17 5:48:30.8370 p.m.,0.29,-2.38,0.06,-3.58,0.68,-1.99
2022-02-17 5:48:30.8470 p.m.,0.54,-1.99,0.72,-3.67,0.42,-1.99
2022-02-17 5:48:30.8580 p.m.,0.02,-1.51,0.83,-3.7,0.13,-2.0
2022-02-17 5:48:30.8670 p.m.,-1.0,-1.12,1.19,-3.61,-0.05,-1.96
2022-02-17 5:48:30.8770 p.m.,-1.81,-0.47,1.53,-3.47,-0.2,-1.81
2022-02-17 5:48:30.8870 p.m.,-2.58,0.27,1.55,-3.38,-0.24,-1.59
2022-02-17 5:48:30.8970 p.m.,-2.66,0.48,1.38,-3.34,-0.12,-1.42
2022-02-17 5:48:30.9070 p.m.,-2.75,0.17,1.76,-3.32,0.18,-1.26
2022-02-17 5:48:30.9170 p.m.,-3.21,0.03,2.12,-3.29,0.53,-1.14
2022-02-17 5:48:30.9270 p.m.,-3.32,0.39,2.32,-3.27,0.9,-1.12
2022-02-17 5:48:30.9380 p.m.,-3.15,0.44,2.63,-3.27,1.34,-1.1
2022-02-17 5:48:30.9480 p.m.,-2.86,0.36,2.7,-3.3,1.75,-1.14
2022-02-17 5:48:30.9570 p.m.,-2.47,0.58,2.59,-3.25,2.0,-1.18
2022-02-17 5:48:30.9680 p.m.,-2.1,1.02,2.26,-3.21,1.94,-1.29
2022-02-17 5:48:30.9780 p.m.,-1.48,1.7,1.5,-3.17,1.6,-1.41
2022-02-17 5:48:30.9880 p.m.,-1.11,2.29,1.05,-3.05,1.18,-1.46
2022-02-17 5:48:30.9980 p.m.,-0.93,2.83,1.11,-2.91,0.94,-1.44
2022-02-17 5:48:31.0080 p.m.,-0.55,3.0,1.25,-2.75,0.79,-1.36
2022-02-17 5:48:31.0180 p.m.,-0.07,2.94,1.33,-2.64,0.77,-1.3
2022-02-17 5:48:31.0280 p.m.,0.4,2.79,2.34,-2.54,0.83,-1.32
2022-02-17 5:48:31.0380 p.m.,0.36,2.47,3.12,-2.46,0.7,-1.33
2022-02-17 5:48:31.0480 p.m.,-0.2,1.67,2.49,-2.45,0.42,-1.3
2022-02-17 5:48:31.0580 p.m.,-0.78,0.74,1.39,-2.38,0.21,-1.2
2022-02-17 5:48:31.0680 p.m.,-1.35,-0.04,0.59,-2.22,0.27,-1.04
2022-02-17 5:48:31.0780 p.m.,-1.82,0.03,0.58,-2.02,0.51,-0.89
2022-02-17 5:48:31.0880 p.m.,-2.12,0.76,1.53,-1.75,0.66,-0.77
2022-02-17 5:48:31.0980 p.m.,-2.49,1.6,2.33,-1.48,0.6,-0.61
2022-02-17 5:48:31.1080 p.m.,-2.55,2.22,2.4,-1.27,0.32,-0.41
2022-02-17 5:48:31.1180 p.m.,-1.54,1.28,2.49,-1.09,0.02,-0.2
2022-02-17 5:48:31.1280 p.m.,0.15,-0.33,2.7,-0.93,-0.15,-0.05
2022-02-17 5:48:31.1400 p.m.,1.85,-1.35,2.59,-0.84,-0.19,-0.03
2022-02-17 5:48:31.1480 p.m.,2.82,-1.5,2.14,-0.79,-0.14,-0.02
2022-02-17 5:48:31.1580 p.m.,2.64,-1.32,1.17,-0.72,-0.15,-0.02
2022-02-17 5:48:31.1680 p.m.,1.44,-1.09,-0.15,-0.6,-0.19,0.04
2022-02-17 5:48:31.1780 p.m.,-0.14,-1.01,-0.24,-0.43,-0.24,0.12
2022-02-17 5:48:31.1880 p.m.,-1.16,-0.84,0.42,-0.25,-0.38,0.25
2022-02-17 5:48:31.1990 p.m.,-1.41,-0.63,1.04,-0.05,-0.56,0.36
2022-02-17 5:48:31.2090 p.m.,-0.95,-1.17,1.49,0.1,-0.69,0.41
2022-02-17 5:48:31.2190 p.m.,-0.16,-2.38,1.61,0.14,-0.66,0.39
2022-02-17 5:48:31.2290 p.m.,0.68,-3.21,1.21,0.1,-0.46,0.29
2022-02-17 5:48:31.2390 p.m.,1.34,-3.04,0.16,0.1,-0.26,0.13
2022-02-17 5:48:31.2490 p.m.,1.89,-2.17,-0.86,0.13,-0.17,-0.06
2022-02-17 5:48:31.2590 p.m.,2.18,-1.71,-1.13,0.11,-0.22,-0.26
2022-02-17 5:48:31.2690 p.m.,2.06,-1.75,-1.03,0.08,-0.33,-0.39
2022-02-17 5:48:31.2790 p.m.,1.76,-1.55,-0.95,0.13,-0.46,-0.43
2022-02-17 5:48:31.2890 p.m.,1.31,-0.91,-0.76,0.29,-0.6,-0.38
2022-02-17 5:48:31.3020 p.m.,-0.03,0.95,0.69,0.43,-0.7,-0.31
2022-02-17 5:48:31.3120 p.m.,-0.19,1.42,0.58,0.48,-0.83,-0.25
2022-02-17 5:48:31.3220 p.m.,-0.32,1.32,0.28,0.5,-0.99,-0.2
2022-02-17 5:48:31.3320 p.m.,-0.74,0.76,0.27,0.54,-1.06,-0.15
2022-02-17 5:48:31.3420 p.m.,-1.1,0.41,0.05,0.54,-1.06,-0.15
2022-02-17 5:48:31.3520 p.m.,-1.38,0.24,-0.41,0.5,-1.11,-0.06
2022-02-17 5:48:31.3620 p.m.,-1.29,0.11,-1.17,0.44,-1.1,-0.02
2022-02-17 5:48:31.3720 p.m.,-0.69,-0.05,-2.12,0.4,-1.08,0.02
2022-02-17 5:48:31.3820 p.m.,-0.31,-0.17,-2.34,0.36,-1.04,0.08
2022-02-17 5:48:31.3920 p.m.,-0.29,-0.13,-1.96,0.35,-1.05,0.15
2022-02-17 5:48:31.4020 p.m.,-0.49,0.16,-1.59,0.36,-1.13,0.23
2022-02-17 5:48:31.4130 p.m.,-0.74,0.62,-1.37,0.41,-1.2,0.31
2022-02-17 5:48:31.4220 p.m.,-0.81,1.07,-1.34,0.46,-1.19,0.38
2022-02-17 5:48:31.4320 p.m.,-0.76,1.31,-1.41,0.5,-1.09,0.43
2022-02-17 5:48:31.4420 p.m.,-0.74,1.27,-1.4,0.5,-0.98,0.48
2022-02-17 5:48:31.4520 p.m.,-0.7,1.04,-1.29,0.47,-0.9,0.52
2022-02-17 5:48:31.4620 p.m.,-0.57,0.7,-1.1,0.41,-0.84,0.54
2022-02-17 5:48:31.4720 p.m.,-0.24,0.36,-1.05,0.4,-0.76,0.56
2022-02-17 5:48:31.4830 p.m.,0.27,0.1,-1.25,0.44,-0.68,0.59
2022-02-17 5:48:31.4930 p.m.,0.73,-0.06,-1.21,0.52,-0.65,0.61
2022-02-17 5:48:31.5030 p.m.,0.99,0.04,-0.92,0.58,-0.72,0.64
2022-02-17 5:48:31.5130 p.m.,1.11,0.31,-0.47,0.63,-0.86,0.66
2022-02-17 5:48:31.5230 p.m.,1.06,0.54,-0.22,0.7,-0.96,0.67
2022-02-17 5:48:31.5330 p.m.,0.93,0.61,-0.28,0.77,-1.01,0.66
2022-02-17 5:48:31.5430 p.m.,0.74,0.54,-0.41,0.77,-1.01,0.66
2022-02-17 5:48:31.5530 p.m.,0.54,0.39,-0.4,0.92,-0.99,0.63
2022-02-17 5:48:31.5630 p.m.,0.26,0.14,-0.37,0.97,-0.94,0.62
2022-02-17 5:48:31.5730 p.m.,-0.14,-0.08,-0.24,1.0,-0.89,0.6
2022-02-17 5:48:31.5830 p.m.,-0.5,-0.37,0.1,1.0,-0.85,0.58
2022-02-17 5:48:31.5930 p.m.,-0.61,-0.63,0.38,1.01,-0.78,0.57
2022-02-17 5:48:31.6030 p.m.,-0.4,-0.79,0.42,1.02,-0.66,0.59
2022-02-17 5:48:31.6130 p.m.,-0.05,-0.77,0.29,1.04,-0.52,0.62
2022-02-17 5:48:31.6230 p.m.,0.17,-0.64,0.22,1.04,-0.42,0.67
2022-02-17 5:48:31.6330 p.m.,0.18,-0.27,0.29,1.02,-0.36,0.71
2022-02-17 5:48:31.6430 p.m.,0.03,0.13,0.27,0.97,-0.3,0.73
2022-02-17 5:48:31.6530 p.m.,-0.11,0.4,-0.01,0.92,-0.2,0.72
2022-02-17 5:48:31.6630 p.m.,-0.14,0.49,-0.41,0.89,-0.08,0.71
2022-02-17 5:48:31.6730 p.m.,-0.2,0.44,-0.65,0.89,-0.03,0.72
2022-02-17 5:48:31.6830 p.m.,-0.27,0.49,-0.61,0.9,-0.08,0.72
2022-02-17 5:48:31.6930 p.m.,-0.46,0.66,-0.27,0.91,-0.19,0.73
2022-02-17 5:48:31.7030 p.m.,-0.58,0.97,0.06,0.91,-0.26,0.75
2022-02-17 5:48:31.7130 p.m.,-0.52,1.19,0.09,0.9,-0.27,0.78
2022-02-17 5:48:31.7240 p.m.,-0.32,1.22,-0.07,0.9,-0.27,0.78
2022-02-17 5:48:31.7340 p.m.,-0.13,1.24,-0.31,0.83,-0.12,0.78
2022-02-17 5:48:31.7440 p.m.,-0.17,1.36,-0.31,0.83,-0.12,0.78
2022-02-17 5:48:31.7540 p.m.,-0.32,1.4,-0.05,0.74,-0.07,0.63
2022-02-17 5:48:31.7640 p.m.,-0.36,1.55,0.04,0.69,-0.01,0.53
2022-02-17 5:48:31.7740 p.m.,-0.26,1.6,-0.1,0.65,0.08,0.42
2022-02-17 5:48:31.7840 p.m.,-0.07,1.5,-0.37,0.6,0.15,0.35
2022-02-17 5:48:31.7940 p.m.,0.18,1.36,-0.51,0.58,0.15,0.32
2022-02-17 5:48:31.8040 p.m.,0.33,1.16,-0.48,0.58,0.05,0.31
2022-02-17 5:48:31.8140 p.m.,0.46,0.98,-0.22,0.61,-0.11,0.32
2022-02-17 5:48:31.8240 p.m.,0.53,0.87,-0.01,0.66,-0.22,0.33
2022-02-17 5:48:31.8340 p.m.,0.51,0.81,-0.1,0.69,-0.3,0.33
2022-02-17 5:48:31.8440 p.m.,0.34,0.71,-0.22,0.7,-0.34,0.3
2022-02-17 5:48:31.8540 p.m.,0.08,0.54,-0.28,0.69,-0.35,0.26
2022-02-17 5:48:31.8640 p.m.,-0.12,0.41,-0.21,0.68,-0.32,0.22
2022-02-17 5:48:31.8740 p.m.,-0.16,0.29,-0.2,0.67,-0.24,0.19
2022-02-17 5:48:31.8840 p.m.,-0.15,0.13,-0.43,0.65,-0.13,0.16
2022-02-17 5:48:31.8940 p.m.,-0.11,-0.11,-0.57,0.62,-0.02,0.15
2022-02-17 5:48:31.9040 p.m.,-0.07,-0.27,-0.64,0.59,0.03,0.15
2022-02-17 5:48:31.9140 p.m.,-0.14,-0.24,-0.57,0.59,0.01,0.16
2022-02-17 5:48:31.9240 p.m.,-0.25,-0.2,-0.29,0.66,-0.19,0.13
2022-02-17 5:48:31.9340 p.m.,-0.03,-0.59,0.03,0.76,-0.37,0.09
2022-02-17 5:48:31.9440 p.m.,0.26,-1.07,-0.16,0.82,-0.63,0.07
2022-02-17 5:48:31.9540 p.m.,0.63,-1.82,-0.23,0.77,-0.75,0.08
2022-02-17 5:48:31.9650 p.m.,0.73,-2.02,-0.78,0.72,-0.85,0.07
2022-02-17 5:48:31.9750 p.m.,0.77,-1.8,-0.41,0.79,-1.14,-0.07
2022-02-17 5:48:31.9850 p.m.,0.74,-1.69,0.05,0.88,-1.22,-0.14
2022-02-17 5:48:31.9950 p.m.,0.38,-0.18,-0.64,0.78,-0.85,-0.04
2022-02-17 5:48:32.0050 p.m.,-0.77,2.17,-1.09,0.67,-0.42,0.05
2022-02-17 5:48:32.0150 p.m.,-1.83,3.29,-0.89,0.71,-0.17,0.08
2022-02-17 5:48:32.0250 p.m.,-1.87,2.83,-0.52,0.71,-0.17,0.08
2022-02-17 5:48:32.0350 p.m.,-1.52,1.35,-0.13,0.82,-0.06,0.06
2022-02-17 5:48:32.0450 p.m.,-1.28,0.06,0.01,0.84,-0.02,-0.06
2022-02-17 5:48:32.0550 p.m.,-1.09,-1.01,0.08,0.71,-0.11,-0.05
2022-02-17 5:48:32.0650 p.m.,-0.52,-1.35,0.0,0.61,-0.11,0.01
2022-02-17 5:48:32.0750 p.m.,-0.13,-1.51,-0.58,0.6,-0.03,0.05
2022-02-17 5:48:32.0850 p.m.,0.06,-1.16,-0.88,0.6,-0.03,0.05
2022-02-17 5:48:32.0950 p.m.,0.18,-0.31,-0.69,0.64,0.04,0.07
2022-02-17 5:48:32.1050 p.m.,0.16,0.33,-0.5,0.66,0.02,0.03
2022-02-17 5:48:32.1150 p.m.,0.28,0.47,-0.46,0.68,-0.03,0.04
2022-02-17 5:48:32.1250 p.m.,0.42,0.78,-0.37,0.68,-0.08,0.09
2022-02-17 5:48:32.1360 p.m.,0.39,1.0,-0.22,0.69,-0.17,0.13
2022-02-17 5:48:32.1450 p.m.,0.37,0.86,-0.1,0.76,-0.3,0.13
2022-02-17 5:48:32.1550 p.m.,0.48,0.44,-0.07,0.84,-0.4,0.11
2022-02-17 5:48:32.1650 p.m.,0.38,-0.02,-0.1,0.84,-0.4,0.11
2022-02-17 5:48:32.1750 p.m.,-0.11,-0.41,-0.03,0.88,-0.42,0.13
2022-02-17 5:48:32.1860 p.m.,-0.6,-0.54,0.15,0.87,-0.45,0.13
2022-02-17 5:48:32.1960 p.m.,-0.92,-0.8,0.2,0.88,-0.46,0.11
2022-02-17 5:48:32.2060 p.m.,-0.91,-0.95,0.29,0.9,-0.43,0.09
2022-02-17 5:48:32.2160 p.m.,-1.04,-0.86,0.43,0.93,-0.37,0.07
2022-02-17 5:48:32.2260 p.m.,-1.11,-0.69,0.52,0.93,-0.3,0.09
2022-02-17 5:48:32.2360 p.m.,-1.03,-0.33,0.57,0.93,-0.25,0.15
2022-02-17 5:48:32.2460 p.m.,-0.93,-0.1,0.62,0.92,-0.23,0.22
2022-02-17 5:48:32.2560 p.m.,-0.94,0.06,0.64,0.91,-0.26,0.26
2022-02-17 5:48:32.2660 p.m.,-0.88,0.13,0.65,0.91,-0.28,0.28
2022-02-17 5:48:32.2760 p.m.,-0.78,0.02,0.53,0.91,-0.28,0.27
2022-02-17 5:48:32.2860 p.m.,-0.55,-0.1,0.36,0.9,-0.23,0.27
2022-02-17 5:48:32.2960 p.m.,-0.23,-0.14,0.2,0.88,-0.16,0.27
2022-02-17 5:48:32.3060 p.m.,0.2,-0.11,0.04,0.88,-0.16,0.27
2022-02-17 5:48:32.3160 p.m.,0.58,0.04,-0.15,0.8,0.01,0.26
2022-02-17 5:48:32.3260 p.m.,0.7,0.25,-0.37,0.74,0.06,0.24
2022-02-17 5:48:32.3360 p.m.,0.61,0.5,-0.39,0.74,0.06,0.24
2022-02-17 5:48:32.3460 p.m.,0.43,0.45,-0.14,0.69,-0.01,0.22
2022-02-17 5:48:32.3560 p.m.,0.33,0.4,-0.05,0.69,-0.33,0.21
2022-02-17 5:48:32.3660 p.m.,0.06,0.64,-0.12,0.68,-0.44,0.22
2022-02-17 5:48:32.3760 p.m.,-0.41,0.73,-0.03,0.63,-0.56,0.22
2022-02-17 5:48:32.3870 p.m.,-0.6,0.43,0.37,0.53,-0.66,0.24
2022-02-17 5:48:32.3960 p.m.,-0.61,0.25,0.63,0.41,-0.72,0.26
2022-02-17 5:48:32.4060 p.m.,-0.56,0.17,0.81,0.31,-0.72,0.27
2022-02-17 5:48:32.4170 p.m.,-0.19,-0.04,0.79,0.27,-0.64,0.24
2022-02-17 5:48:32.4270 p.m.,0.16,-0.23,0.51,0.33,-0.46,0.13
2022-02-17 5:48:32.4370 p.m.,0.17,-0.07,-0.05,0.46,-0.13,0.07
2022-02-17 5:48:32.4470 p.m.,0.04,0.5,-0.7,0.58,0.26,0.05
2022-02-17 5:48:32.4570 p.m.,-0.54,0.91,-0.75,0.63,0.53,0.1
2022-02-17 5:48:32.4670 p.m.,-0.81,0.82,-0.27,0.64,0.61,0.12
2022-02-17 5:48:32.4770 p.m.,-1.23,0.68,0.19,0.6,0.5,0.12
2022-02-17 5:48:32.4870 p.m.,-1.26,0.71,0.61,0.52,0.29,0.16
2022-02-17 5:48:32.4970 p.m.,-0.7,0.27,0.81,0.45,0.1,0.22
2022-02-17 5:48:32.5070 p.m.,-0.44,-0.27,0.56,0.42,-0.05,0.24
2022-02-17 5:48:32.5170 p.m.,-0.18,-0.56,0.21,0.45,-0.12,0.25
2022-02-17 5:48:32.5270 p.m.,-0.1,-0.12,-0.24,0.51,-0.11,0.24
2022-02-17 5:48:32.5370 p.m.,-0.15,0.57,-0.64,0.58,-0.02,0.26
2022-02-17 5:48:32.5470 p.m.,0.28,0.7,-0.72,0.59,0.05,0.29
2022-02-17 5:48:32.5570 p.m.,0.59,0.27,-0.39,0.54,0.06,0.27
2022-02-17 5:48:32.5670 p.m.,0.87,0.0,0.0,0.44,0.05,0.22
2022-02-17 5:48:32.5770 p.m.,1.2,0.06,0.11,0.33,0.09,0.14
2022-02-17 5:48:32.5870 p.m.,1.33,0.2,0.14,0.19,0.14,0.07
2022-02-17 5:48:32.5970 p.m.,1.14,0.31,0.19,0.04,0.18,0.02
2022-02-17 5:48:32.6070 p.m.,0.86,0.2,0.31,-0.13,0.22,-0.03
2022-02-17 5:48:32.6170 p.m.,0.61,-0.15,0.52,-0.31,0.26,-0.05
2022-02-17 5:48:32.6270 p.m.,0.58,-0.53,0.68,-0.31,0.26,-0.05
2022-02-17 5:48:32.6380 p.m.,0.55,-0.75,0.76,-0.45,0.3,-0.04
2022-02-17 5:48:32.6480 p.m.,0.54,-0.71,0.84,-0.58,0.26,0.02
2022-02-17 5:48:32.6580 p.m.,0.53,-0.51,0.87,-0.54,0.21,0.06
2022-02-17 5:48:32.6680 p.m.,0.29,-0.09,0.79,-0.45,0.15,0.09
2022-02-17 5:48:32.6780 p.m.,-0.06,0.25,0.74,-0.32,0.09,0.08
2022-02-17 5:48:32.6880 p.m.,-0.34,0.38,0.74,-0.32,0.09,0.08
2022-02-17 5:48:32.6980 p.m.,-0.46,0.51,0.78,-0.07,0.05,0.06
2022-02-17 5:48:32.7080 p.m.,-0.41,0.56,1.0,0.03,-0.01,0.04
2022-02-17 5:48:32.7180 p.m.,-0.02,0.71,1.14,0.14,-0.01,-0.0
2022-02-17 5:48:32.7280 p.m.,0.48,0.86,0.95,0.24,0.03,-0.03
2022-02-17 5:48:32.7380 p.m.,1.18,0.66,0.69,0.32,0.09,0.0
2022-02-17 5:48:32.7480 p.m.,1.6,0.16,0.24,0.39,0.11,-0.02
2022-02-17 5:48:32.7580 p.m.,1.21,-0.28,-0.32,0.48,0.08,-0.1
2022-02-17 5:48:32.7680 p.m.,0.31,-0.85,-0.65,0.48,0.08,-0.1
2022-02-17 5:48:32.7780 p.m.,-0.37,-1.32,-0.67,0.53,-0.03,-0.2
2022-02-17 5:48:32.7880 p.m.,-0.61,-1.11,-0.84,0.49,-0.01,-0.12
2022-02-17 5:48:32.7980 p.m.,-0.49,-0.7,-0.93,0.41,0.01,0.02
2022-02-17 5:48:32.8080 p.m.,-0.48,-0.35,-0.9,0.31,0.02,0.16
2022-02-17 5:48:32.8180 p.m.,-0.69,0.0,-0.82,0.17,-0.02,0.25
2022-02-17 5:48:32.8280 p.m.,-0.52,-0.05,-0.34,0.02,-0.13,0.24
2022-02-17 5:48:32.8380 p.m.,-0.3,-0.22,-0.05,-0.07,-0.18,0.19
2022-02-17 5:48:32.8480 p.m.,0.04,0.16,-0.15,-0.12,-0.21,0.16
2022-02-17 5:48:32.8580 p.m.,0.31,0.27,-0.02,-0.16,-0.23,0.09
2022-02-17 5:48:32.8680 p.m.,0.22,0.2,0.26,-0.21,-0.23,0.03
2022-02-17 5:48:32.8790 p.m.,0.25,0.23,0.59,-0.27,-0.21,0.02
2022-02-17 5:48:32.8880 p.m.,0.32,0.24,0.84,-0.3,-0.14,0.01
2022-02-17 5:48:32.8990 p.m.,0.15,0.25,0.89,-0.3,-0.05,-0.01
2022-02-17 5:48:32.9090 p.m.,-0.02,0.29,0.88,-0.25,0.06,-0.02
2022-02-17 5:48:32.9190 p.m.,0.01,0.41,0.77,-0.19,0.14,-0.02
2022-02-17 5:48:32.9290 p.m.,0.05,0.43,0.82,-0.12,0.18,-0.05
2022-02-17 5:48:32.9390 p.m.,-0.04,0.18,0.9,-0.06,0.23,-0.01
2022-02-17 5:48:32.9490 p.m.,-0.16,0.34,0.76,-0.04,0.3,0.04
2022-02-17 5:48:32.9590 p.m.,-0.32,0.03,0.8,-0.05,0.31,-0.0
2022-02-17 5:48:32.9690 p.m.,-0.45,-0.72,1.09,-0.06,0.2,-0.05
2022-02-17 5:48:32.9790 p.m.,-0.41,-0.66,1.23,-0.06,0.08,-0.06
2022-02-17 5:48:32.9890 p.m.,-0.33,-0.14,0.94,-0.05,-0.01,-0.02
2022-02-17 5:48:32.9990 p.m.,-0.07,-0.03,0.66,-0.04,-0.08,0.02
2022-02-17 5:48:33.0090 p.m.,0.15,-0.09,0.42,-0.02,-0.1,0.07
2022-02-17 5:48:33.0190 p.m.,0.44,-0.16,0.27,-0.02,-0.1,0.07
2022-02-17 5:48:33.0290 p.m.,0.56,-0.17,0.31,0.01,-0.17,0.05
2022-02-17 5:48:33.0390 p.m.,0.79,-0.44,0.7,0.0,-0.23,0.04
2022-02-17 5:48:33.0490 p.m.,1.05,-0.07,0.84,-0.02,-0.23,0.0
2022-02-17 5:48:33.0590 p.m.,1.02,0.25,0.74,-0.03,-0.19,-0.03
2022-02-17 5:48:33.0690 p.m.,0.92,0.29,0.66,-0.03,-0.16,-0.07
2022-02-17 5:48:33.0790 p.m.,0.6,0.27,0.54,-0.02,-0.17,-0.11
2022-02-17 5:48:33.0890 p.m.,0.29,0.22,0.39,0.0,-0.17,-0.13
2022-02-17 5:48:33.1000 p.m.,0.0,0.19,0.21,0.03,-0.15,-0.15
2022-02-17 5:48:33.1090 p.m.,-0.32,0.16,0.06,0.02,-0.1,-0.15
2022-02-17 5:48:33.1190 p.m.,-0.6,0.0,0.06,0.0,-0.03,-0.15
2022-02-17 5:48:33.1300 p.m.,-0.77,-0.1,0.12,-0.01,0.04,-0.13
2022-02-17 5:48:33.1400 p.m.,-0.81,0.11,0.05,-0.01,0.08,-0.11
2022-02-17 5:48:33.1500 p.m.,-0.84,0.43,-0.14,0.02,0.09,-0.11
2022-02-17 5:48:33.1600 p.m.,-0.85,0.48,-0.41,0.09,0.1,-0.1
2022-02-17 5:48:33.1700 p.m.,-0.76,0.48,-0.73,0.19,0.12,-0.06
2022-02-17 5:48:33.1800 p.m.,-0.33,-0.09,-1.1,0.32,0.18,-0.07
2022-02-17 5:48:33.1900 p.m.,-0.24,-0.79,-1.61,0.45,0.31,-0.1
2022-02-17 5:48:33.2000 p.m.,-0.37,-0.92,-1.94,0.51,0.41,-0.07
2022-02-17 5:48:33.2100 p.m.,-0.26,-1.05,-1.51,0.39,0.3,-0.01
2022-02-17 5:48:33.2200 p.m.,-0.22,-1.43,-0.05,0.1,-0.06,0.06
2022-02-17 5:48:33.2300 p.m.,-0.13,-1.4,1.16,-0.13,-0.28,0.12
2022-02-17 5:48:33.2400 p.m.,-0.07,-0.75,-0.08,-0.1,-0.1,0.1
2022-02-17 5:48:33.2500 p.m.,0.12,-0.15,-2.26,0.04,0.2,0.11
2022-02-17 5:48:33.2600 p.m.,0.78,0.29,-2.44,0.08,0.19,0.07
2022-02-17 5:48:33.2700 p.m.,0.75,0.72,-0.74,-0.01,-0.15,-0.02
2022-02-17 5:48:33.2800 p.m.,0.68,1.12,0.74,-0.12,-0.53,-0.08
2022-02-17 5:48:33.2900 p.m.,0.55,1.73,0.89,-0.12,-0.53,-0.08
2022-02-17 5:48:33.3000 p.m.,-0.28,1.75,0.01,-0.13,-0.41,-0.2
2022-02-17 5:48:33.3100 p.m.,-0.5,0.75,-0.37,-0.13,-0.05,-0.2
2022-02-17 5:48:33.3200 p.m.,-0.67,-0.04,-0.21,-0.18,0.32,-0.18
2022-02-17 5:48:33.3310 p.m.,-0.9,-0.59,0.3,-0.26,0.54,-0.15
2022-02-17 5:48:33.3400 p.m.,-0.83,-1.11,1.05,-0.32,0.53,-0.09
2022-02-17 5:48:33.3510 p.m.,-0.5,-1.24,1.4,-0.27,0.37,-0.05
2022-02-17 5:48:33.3610 p.m.,-0.06,-0.93,1.02,-0.1,0.16,-0.03
2022-02-17 5:48:33.3710 p.m.,0.51,-0.41,0.44,0.1,-0.0,-0.02
2022-02-17 5:48:33.3810 p.m.,0.86,0.05,-0.04,0.23,-0.1,-0.03
2022-02-17 5:48:33.3910 p.m.,0.85,0.44,-0.05,0.2,-0.14,-0.05
2022-02-17 5:48:33.4010 p.m.,0.57,0.77,0.21,0.08,-0.09,-0.07
2022-02-17 5:48:33.4120 p.m.,0.24,0.96,0.33,-0.08,0.03,-0.08
2022-02-17 5:48:33.4210 p.m.,-0.01,0.88,0.33,-0.21,0.18,-0.1
2022-02-17 5:48:33.4310 p.m.,-0.08,0.62,0.31,-0.27,0.26,-0.07
2022-02-17 5:48:33.4410 p.m.,0.08,0.52,0.44,-0.27,0.26,-0.07
2022-02-17 5:48:33.4510 p.m.,0.16,0.3,0.52,-0.2,0.15,0.02
2022-02-17 5:48:33.4610 p.m.,0.24,0.06,0.52,-0.11,0.04,0.05
2022-02-17 5:48:33.4710 p.m.,0.47,-0.1,0.52,-0.03,-0.06,0.06
2022-02-17 5:48:33.4810 p.m.,0.65,-0.23,0.52,0.03,-0.15,0.04
2022-02-17 5:48:33.4910 p.m.,0.84,-0.37,0.54,0.05,-0.22,0.01
2022-02-17 5:48:33.5010 p.m.,1.01,-0.36,0.55,0.03,-0.29,0.01
2022-02-17 5:48:33.5110 p.m.,0.99,-0.12,0.47,-0.0,-0.35,0.0
2022-02-17 5:48:33.5210 p.m.,0.86,0.15,0.36,-0.04,-0.39,-0.0
2022-02-17 5:48:33.5310 p.m.,0.74,0.13,0.27,-0.07,-0.43,-0.05
2022-02-17 5:48:33.5410 p.m.,0.75,-0.21,0.3,-0.06,-0.46,-0.13
2022-02-17 5:48:33.5510 p.m.,0.72,-0.34,0.21,-0.03,-0.41,-0.2
2022-02-17 5:48:33.5610 p.m.,0.49,0.03,-0.08,0.01,-0.3,-0.26
2022-02-17 5:48:33.5710 p.m.,0.21,0.23,-0.18,0.02,-0.18,-0.27
2022-02-17 5:48:33.5810 p.m.,-0.01,0.24,-0.11,0.01,-0.08,-0.26
2022-02-17 5:48:33.5920 p.m.,-0.24,0.03,0.06,-0.02,-0.04,-0.23
2022-02-17 5:48:33.6020 p.m.,-0.41,-0.13,0.14,-0.04,-0.02,-0.19
2022-02-17 5:48:33.6120 p.m.,-0.48,-0.19,0.03,-0.01,-0.03,-0.15
2022-02-17 5:48:33.6220 p.m.,-0.58,-0.22,-0.24,-0.01,-0.03,-0.15
2022-02-17 5:48:33.6320 p.m.,-0.62,-0.22,-0.49,0.1,-0.07,-0.07
2022-02-17 5:48:33.6420 p.m.,-0.63,-0.15,-0.65,0.1,-0.07,-0.07
2022-02-17 5:48:33.6520 p.m.,-0.65,-0.1,-0.74,0.16,-0.1,-0.05
2022-02-17 5:48:33.6620 p.m.,-0.63,-0.08,-0.71,0.17,-0.17,-0.01
2022-02-17 5:48:33.6720 p.m.,-0.54,-0.11,-0.62,0.11,-0.19,-0.0
2022-02-17 5:48:33.6820 p.m.,-0.48,-0.17,-0.58,0.03,-0.17,-0.0
2022-02-17 5:48:33.6920 p.m.,-0.45,-0.22,-0.61,-0.03,-0.1,-0.01
2022-02-17 5:48:33.7020 p.m.,-0.37,-0.2,-0.63,-0.1,-0.01,-0.02
2022-02-17 5:48:33.7120 p.m.,-0.34,-0.14,-0.47,-0.15,0.03,-0.04
2022-02-17 5:48:33.7220 p.m.,-0.34,-0.08,-0.2,-0.18,0.04,-0.05
2022-02-17 5:48:33.7320 p.m.,-0.37,-0.01,-0.06,-0.17,0.07,-0.06
2022-02-17 5:48:33.7420 p.m.,-0.45,0.08,-0.08,-0.11,0.1,-0.06
2022-02-17 5:48:33.7520 p.m.,-0.47,0.14,-0.12,-0.05,0.12,-0.07
2022-02-17 5:48:33.7620 p.m.,-0.48,0.15,-0.11,0.0,0.13,-0.08
2022-02-17 5:48:33.7720 p.m.,-0.49,0.09,-0.1,0.04,0.14,-0.08
2022-02-17 5:48:33.7830 p.m.,-0.52,0.06,-0.15,0.06,0.17,-0.1
2022-02-17 5:48:33.7920 p.m.,-0.59,0.06,-0.2,0.05,0.2,-0.11
2022-02-17 5:48:33.8020 p.m.,-0.64,0.02,-0.23,0.05,0.2,-0.11
2022-02-17 5:48:33.8130 p.m.,-0.65,-0.05,-0.26,0.02,0.25,-0.11
2022-02-17 5:48:33.8230 p.m.,-0.61,-0.12,-0.32,-0.03,0.31,-0.09
2022-02-17 5:48:33.8330 p.m.,-0.52,-0.18,-0.38,-0.04,0.3,-0.07
2022-02-17 5:48:33.8430 p.m.,-0.41,-0.22,-0.46,-0.03,0.26,-0.06
2022-02-17 5:48:33.8530 p.m.,-0.26,-0.18,-0.53,-0.03,0.26,-0.06
2022-02-17 5:48:33.8630 p.m.,-0.12,-0.11,-0.57,-0.02,0.2,-0.05
2022-02-17 5:48:33.8730 p.m.,0.03,-0.04,-0.53,-0.01,0.1,-0.05
2022-02-17 5:48:33.8830 p.m.,0.1,0.02,-0.47,-0.03,0.12,-0.06
2022-02-17 5:48:33.8930 p.m.,0.12,0.07,-0.35,-0.06,0.16,-0.09
2022-02-17 5:48:33.9030 p.m.,0.11,0.08,-0.16,-0.08,0.19,-0.11
2022-02-17 5:48:33.9130 p.m.,0.12,0.1,0.07,-0.08,0.19,-0.11
2022-02-17 5:48:33.9230 p.m.,0.12,0.13,0.23,-0.08,0.2,-0.14
2022-02-17 5:48:33.9330 p.m.,0.11,0.08,0.24,-0.03,0.21,-0.16
2022-02-17 5:48:33.9430 p.m.,0.11,0.02,0.25,0.02,0.2,-0.17
2022-02-17 5:48:33.9530 p.m.,0.1,0.03,0.33,0.09,0.15,-0.17
2022-02-17 5:48:33.9630 p.m.,0.08,0.1,0.38,0.14,0.08,-0.16
2022-02-17 5:48:33.9730 p.m.,0.03,0.17,0.35,0.2,0.04,-0.16
2022-02-17 5:48:33.9830 p.m.,0.0,0.17,0.23,0.24,0.04,-0.15
2022-02-17 5:48:33.9930 p.m.,-0.01,0.1,0.1,0.26,0.06,-0.15
2022-02-17 5:48:34.0030 p.m.,0.0,0.03,-0.01,0.27,0.08,-0.16
2022-02-17 5:48:34.0130 p.m.,0.02,-0.05,-0.11,0.28,0.09,-0.17
2022-02-17 5:48:34.0230 p.m.,0.02,-0.1,-0.23,0.29,0.1,-0.18
2022-02-17 5:48:34.0330 p.m.,-0.03,-0.14,-0.31,0.3,0.11,-0.18
2022-02-17 5:48:34.0430 p.m.,-0.11,-0.22,-0.31,0.29,0.09,-0.18
2022-02-17 5:48:34.0540 p.m.,-0.21,-0.2,-0.32,0.28,0.06,-0.18
2022-02-17 5:48:34.0640 p.m.,-0.31,-0.14,-0.36,0.29,0.02,-0.16
2022-02-17 5:48:34.0740 p.m.,-0.38,-0.14,-0.45,0.29,-0.03,-0.15
2022-02-17 5:48:34.0840 p.m.,-0.42,-0.16,-0.51,0.29,-0.08,-0.12
2022-02-17 5:48:34.0940 p.m.,-0.39,-0.17,-0.57,0.29,-0.13,-0.11
2022-02-17 5:48:34.1040 p.m.,-0.3,-0.2,-0.64,0.28,-0.17,-0.09
2022-02-17 5:48:34.1140 p.m.,-0.18,-0.2,-0.66,0.25,-0.19,-0.08
2022-02-17 5:48:34.1240 p.m.,-0.06,-0.16,-0.64,0.25,-0.19,-0.08
2022-02-17 5:48:34.1340 p.m.,0.02,-0.07,-0.65,0.18,-0.13,-0.07
2022-02-17 5:48:34.1440 p.m.,0.06,0.0,-0.61,0.15,-0.08,-0.07
2022-02-17 5:48:34.1540 p.m.,0.07,0.04,-0.5,0.13,-0.04,-0.09
2022-02-17 5:48:34.1640 p.m.,0.02,-0.01,-0.41,0.1,-0.0,-0.1
2022-02-17 5:48:34.1740 p.m.,-0.09,-0.08,-0.33,0.09,0.0,-0.11
2022-02-17 5:48:34.1840 p.m.,-0.24,-0.1,-0.26,0.07,-0.01,-0.11
2022-02-17 5:48:34.1940 p.m.,-0.42,-0.06,-0.27,0.06,-0.03,-0.09
2022-02-17 5:48:34.2040 p.m.,-0.51,-0.01,-0.32,0.06,-0.07,-0.07
2022-02-17 5:48:34.2140 p.m.,-0.48,-0.04,-0.35,0.05,-0.11,-0.05
