time,ax,ay,az,wx,wy,wz
2022-02-17 5:51:46.3350 p.m.,0.28,-0.02,-0.27,-0.1,0.02,-0.03
2022-02-17 5:51:46.3410 p.m.,0.42,-0.01,-0.6,0.03,0.13,-0.01
2022-02-17 5:51:46.3510 p.m.,0.27,-0.1,-0.62,0.14,0.17,0.02
2022-02-17 5:51:46.3610 p.m.,0.21,-0.01,-0.49,0.17,0.15,0.02
2022-02-17 5:51:46.3720 p.m.,0.08,0.0,-0.25,0.14,0.09,0.02
2022-02-17 5:51:46.3820 p.m.,-0.09,-0.02,0.0,0.06,-0.0,0.01
2022-02-17 5:51:46.3920 p.m.,-0.18,0.05,0.2,-0.03,-0.08,0.01
2022-02-17 5:51:46.4020 p.m.,-0.26,0.11,0.38,-0.09,-0.14,-0.01
2022-02-17 5:51:46.4120 p.m.,-0.19,0.07,0.29,-0.09,-0.15,-0.02
2022-02-17 5:51:46.4240 p.m.,-0.19,0.07,0.29,-0.05,-0.11,-0.02
2022-02-17 5:51:46.4320 p.m.,-0.06,0.07,0.05,0.02,-0.04,-0.01
2022-02-17 5:51:46.4420 p.m.,0.01,0.07,-0.19,0.09,0.02,-0.01
2022-02-17 5:51:46.4520 p.m.,0.03,0.03,-0.31,0.13,0.07,-0.01
2022-02-17 5:51:46.4630 p.m.,0.06,0.0,-0.32,0.13,0.09,-0.01
2022-02-17 5:51:46.4720 p.m.,0.01,0.02,0.03,0.1,0.09,-0.02
2022-02-17 5:51:46.4800 p.m.,0.01,0.02,0.03,0.07,0.07,-0.02
2022-02-17 5:51:46.4920 p.m.,-0.19,-0.04,0.1,0.03,0.04,-0.0
2022-02-17 5:51:46.5020 p.m.,-0.09,0.06,0.22,-0.0,0.03,0.01
2022-02-17 5:51:46.5120 p.m.,0.01,-0.01,0.12,-0.01,0.02,0.02
2022-02-17 5:51:46.5220 p.m.,0.08,-0.07,0.17,-0.01,0.01,0.02
2022-02-17 5:51:46.5320 p.m.,0.08,-0.07,0.17,-0.0,0.02,0.03
2022-02-17 5:51:46.5420 p.m.,0.0,-0.04,0.07,0.02,0.0,0.02
2022-02-17 5:51:46.5520 p.m.,0.02,0.02,-0.02,0.06,0.01,0.01
2022-02-17 5:51:46.5630 p.m.,-0.08,-0.02,-0.12,0.09,0.03,-0.0
2022-02-17 5:51:46.5730 p.m.,-0.18,0.03,-0.24,0.11,0.07,-0.01
2022-02-17 5:51:46.5830 p.m.,-0.03,0.04,-0.42,0.12,0.1,-0.01
2022-02-17 5:51:46.5940 p.m.,-0.03,0.04,-0.42,0.08,0.12,-0.01
2022-02-17 5:51:46.6040 p.m.,-0.07,0.0,-0.36,0.02,0.15,-0.0
2022-02-17 5:51:46.6140 p.m.,-0.07,0.01,-0.25,-0.07,0.16,-0.0
2022-02-17 5:51:46.6240 p.m.,0.05,0.01,-0.23,-0.14,0.19,-0.01
2022-02-17 5:51:46.6340 p.m.,0.12,-0.06,-0.31,-0.18,0.27,-0.01
2022-02-17 5:51:46.6440 p.m.,0.1,-0.08,-0.54,-0.19,0.37,-0.01
2022-02-17 5:51:46.6540 p.m.,0.11,-0.1,-0.81,-0.15,0.44,-0.03
2022-02-17 5:51:46.6640 p.m.,0.0,-0.22,-0.97,-0.1,0.5,-0.05
2022-02-17 5:51:46.6740 p.m.,-0.03,-0.33,-1.09,-0.07,0.49,-0.06
2022-02-17 5:51:46.6840 p.m.,-0.19,-0.35,-1.18,-0.05,0.44,-0.04
2022-02-17 5:51:46.6940 p.m.,-0.39,-0.14,-0.93,-0.07,0.5,-0.05
2022-02-17 5:51:46.7040 p.m.,-0.51,-0.02,-0.89,-0.13,0.61,-0.06
2022-02-17 5:51:46.7140 p.m.,-0.3,-0.2,-1.02,-0.14,0.6,-0.12
2022-02-17 5:51:46.7240 p.m.,-0.29,-0.52,-0.98,-0.12,0.55,-0.14
2022-02-17 5:51:46.7350 p.m.,-0.5,-0.69,-0.7,-0.08,0.48,-0.13
2022-02-17 5:51:46.7440 p.m.,-0.62,-0.49,-0.57,-0.02,0.45,-0.14
2022-02-17 5:51:46.7540 p.m.,-0.49,-0.35,-0.78,0.03,0.46,-0.15
2022-02-17 5:51:46.7640 p.m.,-0.49,-0.41,-1.12,0.06,0.55,-0.16
2022-02-17 5:51:46.7740 p.m.,-0.59,-0.6,-1.41,0.11,0.68,-0.16
2022-02-17 5:51:46.7850 p.m.,-0.41,-0.67,-1.68,0.15,0.8,-0.15
2022-02-17 5:51:46.7950 p.m.,-0.15,-0.63,-1.73,0.18,0.91,-0.15
2022-02-17 5:51:46.8040 p.m.,-0.11,-0.63,-1.72,0.21,1.01,-0.17
2022-02-17 5:51:46.8140 p.m.,-0.21,-0.73,-1.76,0.26,1.06,-0.21
2022-02-17 5:51:46.8240 p.m.,-0.3,-0.88,-1.95,0.32,1.1,-0.25
2022-02-17 5:51:46.8350 p.m.,-0.38,-0.89,-2.23,0.34,1.17,-0.27
2022-02-17 5:51:46.8440 p.m.,-0.4,-0.75,-2.53,0.29,1.31,-0.28
2022-02-17 5:51:46.8550 p.m.,-0.29,-0.59,-2.69,0.14,1.43,-0.31
2022-02-17 5:51:46.8650 p.m.,-0.26,-0.5,-2.55,-0.08,1.51,-0.38
2022-02-17 5:51:46.8750 p.m.,-0.27,-0.72,-2.04,-0.31,1.61,-0.49
2022-02-17 5:51:46.8850 p.m.,-0.24,-1.09,-1.66,-0.47,1.73,-0.6
2022-02-17 5:51:46.8950 p.m.,-0.23,-1.26,-1.64,-0.52,1.86,-0.66
2022-02-17 5:51:46.9050 p.m.,-0.28,-1.23,-1.91,-0.44,1.97,-0.7
2022-02-17 5:51:46.9150 p.m.,-0.24,-1.18,-2.43,-0.28,2.05,-0.74
2022-02-17 5:51:46.9250 p.m.,-0.31,-1.17,-3.35,-0.11,2.12,-0.81
2022-02-17 5:51:46.9360 p.m.,-0.31,-1.17,-3.35,-0.06,2.21,-0.88
2022-02-17 5:51:46.9450 p.m.,-0.33,-0.74,-3.36,-0.21,2.29,-0.92
2022-02-17 5:51:46.9550 p.m.,-0.37,-0.6,-2.64,-0.53,2.36,-0.98
2022-02-17 5:51:46.9650 p.m.,-0.62,-0.88,-1.59,-0.92,2.39,-1.14
2022-02-17 5:51:46.9750 p.m.,-0.88,-1.35,-0.47,-1.27,2.4,-1.38
2022-02-17 5:51:46.9850 p.m.,-1.12,-1.82,0.47,-1.5,2.37,-1.63
2022-02-17 5:51:46.9950 p.m.,-1.04,-2.01,0.75,-1.56,2.34,-1.85
2022-02-17 5:51:47.0050 p.m.,-0.72,-1.96,0.31,-1.55,2.27,-2.06
2022-02-17 5:51:47.0150 p.m.,-0.55,-2.56,-0.7,-1.44,2.07,-2.07
2022-02-17 5:51:47.0250 p.m.,-0.38,-1.66,-1.01,-1.27,2.09,-2.0
2022-02-17 5:51:47.0360 p.m.,-0.11,-0.29,-1.85,-1.09,2.17,-1.82
2022-02-17 5:51:47.0460 p.m.,0.35,-0.13,-2.65,-0.96,2.37,-1.63
2022-02-17 5:51:47.0540 p.m.,0.22,0.11,-2.72,-0.96,2.7,-1.47
2022-02-17 5:51:47.0660 p.m.,-0.29,-0.16,-1.98,-1.01,3.0,-1.39
2022-02-17 5:51:47.0760 p.m.,-0.63,-0.7,-0.63,-1.07,3.13,-1.4
2022-02-17 5:51:47.0860 p.m.,-0.79,-1.31,0.75,-1.02,3.02,-1.51
2022-02-17 5:51:47.0960 p.m.,-1.07,-1.75,1.37,-0.68,2.65,-1.66
2022-02-17 5:51:47.1060 p.m.,-0.97,-1.76,1.44,-0.24,2.09,-1.75
2022-02-17 5:51:47.1160 p.m.,-0.58,-1.34,0.68,0.08,1.89,-1.75
2022-02-17 5:51:47.1260 p.m.,-0.16,-1.05,-0.53,0.14,2.02,-1.76
2022-02-17 5:51:47.1360 p.m.,0.19,-0.42,-1.11,0.03,2.36,-1.82
2022-02-17 5:51:47.1460 p.m.,0.37,-0.17,-0.83,-0.09,2.94,-1.84
2022-02-17 5:51:47.1560 p.m.,0.34,-0.6,-1.21,-0.23,3.37,-1.82
2022-02-17 5:51:47.1660 p.m.,0.03,-0.62,-0.7,-0.14,3.55,-1.93
2022-02-17 5:51:47.1760 p.m.,-0.29,-1.26,0.63,0.18,3.54,-2.14
2022-02-17 5:51:47.1860 p.m.,-0.75,-1.74,1.08,0.6,3.49,-2.31
2022-02-17 5:51:47.1960 p.m.,-0.82,-1.94,0.87,0.99,3.34,-2.35
2022-02-17 5:51:47.2060 p.m.,-0.75,-1.42,0.93,1.16,3.05,-2.25
2022-02-17 5:51:47.2160 p.m.,-0.77,-0.11,1.59,1.1,2.67,-2.17
2022-02-17 5:51:47.2260 p.m.,-0.84,0.81,2.53,0.86,2.26,-2.18
2022-02-17 5:51:47.2370 p.m.,-1.14,0.79,3.24,0.52,1.97,-2.25
2022-02-17 5:51:47.2470 p.m.,-1.2,0.08,3.47,0.26,1.88,-2.35
2022-02-17 5:51:47.2570 p.m.,-1.01,-0.69,3.09,0.22,1.92,-2.44
2022-02-17 5:51:47.2670 p.m.,-0.64,-1.1,2.24,0.37,2.01,-2.52
2022-02-17 5:51:47.2770 p.m.,-0.44,-0.96,1.37,0.57,2.03,-2.64
2022-02-17 5:51:47.2870 p.m.,-1.31,-0.75,1.27,0.68,1.91,-2.76
2022-02-17 5:51:47.2970 p.m.,-2.29,-0.81,2.38,0.71,1.7,-2.86
2022-02-17 5:51:47.3070 p.m.,-2.61,-0.74,3.46,0.67,1.43,-2.9
2022-02-17 5:51:47.3160 p.m.,-2.77,-0.44,3.88,0.59,1.18,-2.9
2022-02-17 5:51:47.3270 p.m.,-2.79,-0.22,3.97,0.55,1.03,-2.84
2022-02-17 5:51:47.3370 p.m.,-2.6,-0.2,3.73,0.59,0.94,-2.74
2022-02-17 5:51:47.3470 p.m.,-2.84,-0.2,3.23,0.73,0.9,-2.6
2022-02-17 5:51:47.3570 p.m.,-3.31,-0.07,2.65,0.9,0.89,-2.45
2022-02-17 5:51:47.3670 p.m.,-3.52,0.17,2.24,1.06,0.86,-2.32
2022-02-17 5:51:47.3770 p.m.,-3.84,0.21,2.12,1.2,0.78,-2.23
2022-02-17 5:51:47.3870 p.m.,-3.98,-0.06,2.2,1.31,0.69,-2.2
2022-02-17 5:51:47.3970 p.m.,-3.96,-0.38,2.14,1.39,0.6,-2.23
2022-02-17 5:51:47.4070 p.m.,-4.04,-0.67,1.81,1.45,0.5,-2.24
2022-02-17 5:51:47.4170 p.m.,-4.04,-0.67,1.81,1.5,0.38,-2.15
2022-02-17 5:51:47.4270 p.m.,-3.85,-0.47,1.65,1.52,0.32,-1.94
2022-02-17 5:51:47.4380 p.m.,-3.4,0.0,1.44,1.55,0.38,-1.69
2022-02-17 5:51:47.4470 p.m.,-2.97,0.37,1.11,1.6,0.49,-1.48
2022-02-17 5:51:47.4570 p.m.,-2.88,0.45,0.7,1.7,0.48,-1.39
2022-02-17 5:51:47.4670 p.m.,-3.03,0.14,0.54,1.83,0.45,-1.4
2022-02-17 5:51:47.4770 p.m.,-3.34,-0.47,0.55,1.97,0.44,-1.42
2022-02-17 5:51:47.4880 p.m.,-3.43,-0.95,0.31,2.09,0.46,-1.4
2022-02-17 5:51:47.4970 p.m.,-3.03,-1.07,-0.03,2.17,0.52,-1.34
2022-02-17 5:51:47.5080 p.m.,-2.55,-1.0,-0.17,2.19,0.54,-1.27
2022-02-17 5:51:47.5180 p.m.,-2.01,-0.53,-0.29,2.13,0.51,-1.21
2022-02-17 5:51:47.5280 p.m.,-2.01,-0.53,-0.29,2.01,0.45,-1.16
2022-02-17 5:51:47.5380 p.m.,-1.97,-0.31,-0.46,1.84,0.42,-1.13
2022-02-17 5:51:47.5480 p.m.,-1.98,-0.25,-0.6,1.67,0.4,-1.08
2022-02-17 5:51:47.5580 p.m.,-1.83,-0.29,-0.68,1.51,0.4,-0.99
2022-02-17 5:51:47.5680 p.m.,-1.51,-0.36,-0.74,1.38,0.4,-0.84
2022-02-17 5:51:47.5780 p.m.,-1.12,-0.38,-0.8,1.29,0.36,-0.65
2022-02-17 5:51:47.5880 p.m.,-0.82,-0.31,-0.7,1.27,0.33,-0.44
2022-02-17 5:51:47.5980 p.m.,-0.44,-0.04,-0.73,1.3,0.29,-0.32
2022-02-17 5:51:47.6080 p.m.,-0.31,0.31,-1.25,1.35,0.16,-0.28
2022-02-17 5:51:47.6180 p.m.,-0.4,0.29,-1.12,1.39,0.04,-0.33
2022-02-17 5:51:47.6280 p.m.,-0.53,-0.18,-0.49,1.41,-0.12,-0.44
2022-02-17 5:51:47.6380 p.m.,-0.53,-0.62,-0.32,1.44,-0.26,-0.5
2022-02-17 5:51:47.6480 p.m.,-0.28,-0.61,0.15,1.33,-0.08,-0.4
2022-02-17 5:51:47.6580 p.m.,0.37,0.24,-0.36,1.25,0.15,-0.17
2022-02-17 5:51:47.6690 p.m.,1.09,1.31,-1.6,1.18,0.46,-0.0
2022-02-17 5:51:47.6780 p.m.,1.03,1.69,-2.53,0.98,0.7,0.09
2022-02-17 5:51:47.6880 p.m.,0.74,1.77,-2.79,0.64,0.97,0.14
2022-02-17 5:51:47.6980 p.m.,0.57,1.75,-2.65,0.19,1.24,0.1
2022-02-17 5:51:47.7080 p.m.,0.56,2.07,-2.64,-0.11,1.22,-0.12
2022-02-17 5:51:47.7190 p.m.,0.0,1.45,-2.37,-0.24,0.9,-0.39
2022-02-17 5:51:47.7290 p.m.,-0.9,0.44,-1.5,-0.21,0.33,-0.4
2022-02-17 5:51:47.7380 p.m.,-0.32,0.27,-0.39,0.02,-0.05,-0.26
2022-02-17 5:51:47.7480 p.m.,0.92,1.2,-0.61,0.27,-0.09,-0.21
2022-02-17 5:51:47.7590 p.m.,0.21,0.89,-1.43,0.49,-0.07,-0.17
2022-02-17 5:51:47.7690 p.m.,0.02,0.41,-1.37,0.81,-0.25,-0.2
2022-02-17 5:51:47.7790 p.m.,-0.07,0.45,-0.28,0.99,-0.39,-0.26
2022-02-17 5:51:47.7890 p.m.,-0.39,0.04,0.74,0.97,-0.41,-0.35
2022-02-17 5:51:47.7990 p.m.,-0.27,-0.33,1.23,0.74,-0.42,-0.38
2022-02-17 5:51:47.8090 p.m.,0.1,0.24,0.82,0.59,-0.6,-0.38
2022-02-17 5:51:47.8190 p.m.,0.28,1.09,0.15,0.42,-0.82,-0.36
2022-02-17 5:51:47.8290 p.m.,0.25,1.69,-0.24,0.19,-0.9,-0.32
2022-02-17 5:51:47.8390 p.m.,0.45,2.07,-0.37,0.02,-0.85,-0.29
2022-02-17 5:51:47.8490 p.m.,0.67,2.08,-0.85,-0.01,-0.64,-0.3
2022-02-17 5:51:47.8590 p.m.,0.79,1.94,-1.62,0.05,-0.4,-0.3
2022-02-17 5:51:47.8690 p.m.,0.95,1.62,-2.04,0.17,-0.17,-0.31
2022-02-17 5:51:47.8790 p.m.,0.93,1.59,-1.8,0.29,-0.03,-0.31
2022-02-17 5:51:47.8890 p.m.,0.89,1.17,-1.3,0.36,0.03,-0.28
2022-02-17 5:51:47.9000 p.m.,0.91,0.94,-0.55,0.37,0.06,-0.27
2022-02-17 5:51:47.9090 p.m.,0.85,0.94,-0.17,0.33,0.03,-0.3
2022-02-17 5:51:47.9190 p.m.,0.44,0.82,0.05,0.27,-0.08,-0.39
2022-02-17 5:51:47.9290 p.m.,0.08,0.61,0.29,0.24,-0.29,-0.51
2022-02-17 5:51:47.9400 p.m.,-0.23,0.24,0.6,0.19,-0.44,-0.58
2022-02-17 5:51:47.9490 p.m.,-0.29,0.17,0.74,0.17,-0.42,-0.59
2022-02-17 5:51:47.9590 p.m.,-0.22,0.39,0.57,0.2,-0.23,-0.59
2022-02-17 5:51:47.9700 p.m.,-0.35,0.48,0.21,0.16,0.02,-0.57
2022-02-17 5:51:47.9790 p.m.,-0.43,0.62,-0.15,0.07,0.15,-0.6
2022-02-17 5:51:47.9890 p.m.,-0.47,0.79,-0.14,0.0,0.09,-0.71
2022-02-17 5:51:47.9990 p.m.,-0.59,0.3,0.19,-0.03,-0.05,-0.78
2022-02-17 5:51:48.0100 p.m.,-0.4,0.06,0.24,-0.06,-0.13,-0.8
2022-02-17 5:51:48.0200 p.m.,0.07,0.32,0.16,-0.06,-0.07,-0.81
2022-02-17 5:51:48.0300 p.m.,0.32,0.43,-0.13,-0.02,0.09,-0.8
2022-02-17 5:51:48.0400 p.m.,0.5,0.66,-0.68,0.06,0.26,-0.79
2022-02-17 5:51:48.0500 p.m.,0.61,0.84,-1.08,0.09,0.37,-0.81
2022-02-17 5:51:48.0600 p.m.,0.56,1.01,-1.13,0.04,0.5,-0.83
2022-02-17 5:51:48.0700 p.m.,0.41,1.16,-0.91,-0.1,0.64,-0.87
2022-02-17 5:51:48.0800 p.m.,0.33,1.24,-0.58,-0.3,0.7,-0.92
2022-02-17 5:51:48.0900 p.m.,0.41,1.41,-0.22,-0.54,0.72,-1.04
2022-02-17 5:51:48.1000 p.m.,0.6,1.57,0.03,-0.73,0.73,-1.13
2022-02-17 5:51:48.1100 p.m.,1.03,1.67,0.16,-0.82,0.86,-1.2
2022-02-17 5:51:48.1200 p.m.,1.19,1.5,0.27,-0.73,0.93,-1.2
2022-02-17 5:51:48.1300 p.m.,1.34,1.22,0.54,-0.54,1.02,-1.22
2022-02-17 5:51:48.1400 p.m.,0.98,0.66,0.99,-0.5,1.08,-1.28
2022-02-17 5:51:48.1500 p.m.,0.73,0.22,1.34,-0.63,0.89,-1.32
2022-02-17 5:51:48.1600 p.m.,0.26,0.2,1.66,-0.83,0.66,-1.45
2022-02-17 5:51:48.1700 p.m.,-0.8,0.26,1.88,-1.09,0.43,-1.55
2022-02-17 5:51:48.1800 p.m.,-1.57,0.49,1.44,-1.33,0.22,-1.62
2022-02-17 5:51:48.1900 p.m.,-2.14,0.84,0.74,-1.55,0.01,-1.66
2022-02-17 5:51:48.2000 p.m.,-2.2,1.14,0.2,-1.74,-0.16,-1.67
2022-02-17 5:51:48.2100 p.m.,-1.61,0.77,0.14,-1.82,-0.18,-1.55
2022-02-17 5:51:48.2210 p.m.,-0.95,0.62,-0.26,-1.25,0.69,-1.09
2022-02-17 5:51:48.2300 p.m.,-0.18,0.2,-1.15,-0.54,1.34,-0.74
2022-02-17 5:51:48.2410 p.m.,1.18,-1.76,-2.79,-0.63,1.35,-0.77
2022-02-17 5:51:48.2500 p.m.,0.62,-1.34,-0.51,-0.77,1.08,-0.78
2022-02-17 5:51:48.2610 p.m.,0.65,-1.33,0.86,-0.78,0.88,-0.76
2022-02-17 5:51:48.2710 p.m.,-0.68,-1.06,0.87,-0.75,0.82,-0.76
2022-02-17 5:51:48.2810 p.m.,-0.84,-0.71,0.18,-0.72,0.71,-0.77
2022-02-17 5:51:48.2910 p.m.,0.16,-0.12,-0.13,-0.69,0.62,-0.78
2022-02-17 5:51:48.3010 p.m.,0.43,0.65,-0.79,-0.54,0.56,-0.75
2022-02-17 5:51:48.3110 p.m.,0.62,0.78,-1.49,-0.38,0.55,-0.68
2022-02-17 5:51:48.3210 p.m.,0.52,0.31,-1.58,-0.24,0.56,-0.6
2022-02-17 5:51:48.3380 p.m.,-0.01,-0.54,-0.99,-0.11,0.53,-0.55
2022-02-17 5:51:48.3400 p.m.,-0.01,-0.54,-0.99,0.02,0.42,-0.56
2022-02-17 5:51:48.3510 p.m.,-0.52,-0.84,-0.65,0.17,0.26,-0.62
2022-02-17 5:51:48.3610 p.m.,-0.79,-1.09,-0.35,0.3,0.2,-0.71
2022-02-17 5:51:48.3710 p.m.,-0.74,-1.06,-0.26,0.43,0.32,-0.82
2022-02-17 5:51:48.3810 p.m.,-0.61,-0.29,-0.57,0.51,0.31,-0.87
2022-02-17 5:51:48.3910 p.m.,-0.73,0.89,-0.81,0.5,0.06,-0.77
2022-02-17 5:51:48.4010 p.m.,-0.83,1.08,0.03,0.35,-0.1,-0.6
2022-02-17 5:51:48.4110 p.m.,-0.63,0.67,0.51,0.26,-0.23,-0.55
2022-02-17 5:51:48.4220 p.m.,-0.82,0.79,0.25,0.28,-0.46,-0.74
2022-02-17 5:51:48.4320 p.m.,-0.6,0.63,0.9,0.3,-0.5,-1.12
2022-02-17 5:51:48.4420 p.m.,-0.75,-0.73,0.94,0.21,-0.33,-1.43
2022-02-17 5:51:48.4520 p.m.,-0.75,-1.29,0.52,0.01,-0.08,-1.57
2022-02-17 5:51:48.4620 p.m.,0.0,-1.53,0.45,-0.17,-0.01,-1.61
2022-02-17 5:51:48.4720 p.m.,0.41,-1.23,0.38,-0.27,-0.05,-1.56
2022-02-17 5:51:48.4820 p.m.,0.54,-0.74,0.55,-0.27,-0.11,-1.44
2022-02-17 5:51:48.4920 p.m.,0.43,-0.48,0.24,-0.24,-0.14,-1.35
2022-02-17 5:51:48.5020 p.m.,0.43,-0.48,0.24,-0.14,-0.09,-1.3
2022-02-17 5:51:48.5120 p.m.,0.01,0.08,-0.71,0.01,-0.05,-1.31
2022-02-17 5:51:48.5220 p.m.,0.01,0.08,-0.71,0.15,0.07,-1.34
2022-02-17 5:51:48.5320 p.m.,-0.18,0.42,-0.99,0.22,0.11,-1.41
2022-02-17 5:51:48.5420 p.m.,-0.35,0.65,-0.85,0.19,0.2,-1.43
2022-02-17 5:51:48.5520 p.m.,-0.44,0.76,-0.41,0.1,0.29,-1.38
2022-02-17 5:51:48.5620 p.m.,-0.05,0.96,-0.18,-0.01,0.34,-1.29
2022-02-17 5:51:48.5720 p.m.,0.4,1.27,-0.04,-0.06,0.37,-1.18
2022-02-17 5:51:48.5820 p.m.,0.29,1.64,-0.33,-0.04,0.33,-1.09
2022-02-17 5:51:48.5920 p.m.,0.14,1.99,-0.53,0.04,0.22,-1.01
2022-02-17 5:51:48.6020 p.m.,0.14,1.88,0.06,0.09,0.19,-0.94
2022-02-17 5:51:48.6120 p.m.,0.27,1.47,0.48,0.11,0.21,-0.9
2022-02-17 5:51:48.6220 p.m.,0.17,0.78,0.73,0.1,0.22,-0.87
2022-02-17 5:51:48.6320 p.m.,0.49,0.71,0.58,0.1,0.35,-0.8
2022-02-17 5:51:48.6420 p.m.,0.8,1.06,0.18,0.09,0.52,-0.65
2022-02-17 5:51:48.6530 p.m.,1.0,1.83,-0.88,-0.01,0.41,-0.53
2022-02-17 5:51:48.6630 p.m.,1.18,2.24,-0.48,-0.17,0.25,-0.47
2022-02-17 5:51:48.6720 p.m.,1.07,2.05,0.57,-0.31,0.07,-0.42
2022-02-17 5:51:48.6830 p.m.,0.76,1.41,0.73,-0.42,-0.1,-0.33
2022-02-17 5:51:48.6920 p.m.,0.69,1.2,0.51,-0.54,-0.17,-0.2
2022-02-17 5:51:48.7030 p.m.,0.99,1.9,0.23,-0.67,-0.16,-0.06
2022-02-17 5:51:48.7130 p.m.,0.89,1.91,0.14,-0.74,-0.25,0.09
2022-02-17 5:51:48.7230 p.m.,0.99,2.42,0.2,-0.65,-0.34,0.26
2022-02-17 5:51:48.7330 p.m.,1.39,3.53,0.42,-0.45,-0.27,0.3
2022-02-17 5:51:48.7430 p.m.,0.78,3.4,-0.14,-0.24,-0.13,0.22
2022-02-17 5:51:48.7530 p.m.,-0.19,3.01,-0.8,-0.11,-0.06,0.07
2022-02-17 5:51:48.7630 p.m.,-0.52,2.81,-0.96,-0.13,-0.14,-0.11
2022-02-17 5:51:48.7730 p.m.,-0.56,2.46,-0.02,-0.25,-0.28,-0.28
2022-02-17 5:51:48.7830 p.m.,-0.68,2.04,0.5,-0.41,-0.32,-0.33
2022-02-17 5:51:48.7930 p.m.,-0.23,1.62,0.28,-0.59,-0.22,-0.4
2022-02-17 5:51:48.8040 p.m.,0.3,1.53,-0.21,-0.58,-0.23,-0.51
2022-02-17 5:51:48.8130 p.m.,0.22,1.68,-0.63,-0.58,0.16,-0.15
2022-02-17 5:51:48.8230 p.m.,1.07,1.35,-1.17,-1.0,0.56,0.36
2022-02-17 5:51:48.8330 p.m.,5.49,0.86,-0.46,-1.54,0.43,-0.36
2022-02-17 5:51:48.8430 p.m.,-1.21,1.7,3.0,-1.7,1.06,-0.83
2022-02-17 5:51:48.8540 p.m.,-2.28,2.99,1.26,-1.29,2.45,-0.95
2022-02-17 5:51:48.8630 p.m.,-0.01,4.64,-3.34,-0.68,3.69,-0.93
2022-02-17 5:51:48.8740 p.m.,0.69,5.14,-5.68,-0.25,4.7,-0.95
2022-02-17 5:51:48.8830 p.m.,0.51,4.57,-3.86,-0.14,6.26,-2.59
2022-02-17 5:51:48.8930 p.m.,-3.97,-8.86,-3.16,-0.54,8.14,-6.15
2022-02-17 5:51:48.9030 p.m.,-15.76,-40.69,-4.66,-0.18,8.7,-8.3
2022-02-17 5:51:48.9150 p.m.,-15.29,-31.63,-2.65,0.74,8.47,-8.89
2022-02-17 5:51:48.9230 p.m.,-7.56,-2.34,-0.49,1.94,7.25,-6.77
2022-02-17 5:51:48.9330 p.m.,-0.73,8.33,-0.5,2.87,5.42,-1.22
2022-02-17 5:51:48.9440 p.m.,20.78,10.25,-1.23,2.87,5.08,1.91
2022-02-17 5:51:48.9540 p.m.,21.92,9.02,-0.06,2.69,4.18,2.24
2022-02-17 5:51:48.9640 p.m.,3.09,3.46,1.55,1.99,1.46,0.96
2022-02-17 5:51:48.9740 p.m.,-4.64,-3.03,6.38,0.57,-1.95,-0.59
2022-02-17 5:51:48.9840 p.m.,-7.93,-6.17,13.86,-0.45,-3.14,-1.1
2022-02-17 5:51:48.9940 p.m.,-6.33,-0.66,10.18,-1.05,-2.7,-0.81
2022-02-17 5:51:49.0040 p.m.,-2.46,2.72,1.49,-1.39,-1.92,-0.26
2022-02-17 5:51:49.0140 p.m.,0.44,2.16,-0.12,-1.34,-1.48,0.01
2022-02-17 5:51:49.0240 p.m.,0.85,0.88,0.17,-1.12,-1.31,0.02
2022-02-17 5:51:49.0340 p.m.,0.1,-0.02,0.32,-0.89,-1.21,0.01
2022-02-17 5:51:49.0450 p.m.,0.19,-0.15,0.44,-0.67,-1.07,0.02
2022-02-17 5:51:49.0540 p.m.,0.63,-0.26,0.42,-0.46,-0.9,0.05
2022-02-17 5:51:49.0640 p.m.,0.73,-0.09,0.19,-0.25,-0.72,0.07
2022-02-17 5:51:49.0740 p.m.,0.89,-0.04,0.05,-0.04,-0.55,0.07
2022-02-17 5:51:49.0850 p.m.,0.91,-0.22,-0.16,0.18,-0.38,0.02
2022-02-17 5:51:49.0940 p.m.,0.7,-0.21,-0.39,0.4,-0.17,-0.06
2022-02-17 5:51:49.1040 p.m.,0.14,-0.28,-0.95,0.57,0.08,-0.11
2022-02-17 5:51:49.1150 p.m.,0.14,-0.28,-0.95,0.7,0.31,-0.09
2022-02-17 5:51:49.1240 p.m.,0.23,-0.26,-0.86,0.77,0.42,-0.07
2022-02-17 5:51:49.1340 p.m.,0.16,-0.08,-0.68,0.8,0.45,-0.1
2022-02-17 5:51:49.1450 p.m.,-0.17,-0.27,-0.26,0.86,0.61,-0.08
2022-02-17 5:51:49.1530 p.m.,-0.27,-0.35,-0.7,0.87,0.69,-0.04
2022-02-17 5:51:49.1650 p.m.,-0.04,-0.18,-0.98,0.7,0.7,0.0
2022-02-17 5:51:49.1750 p.m.,-0.16,-0.28,-0.63,0.06,0.69,-0.01
2022-02-17 5:51:49.1850 p.m.,-0.27,-0.56,-0.65,-0.66,0.62,-0.13
2022-02-17 5:51:49.1940 p.m.,-0.59,-1.03,-1.05,-1.1,0.45,-0.16
2022-02-17 5:51:49.2050 p.m.,-0.41,-0.99,-1.21,-1.18,0.21,-0.1
2022-02-17 5:51:49.2150 p.m.,0.27,-0.08,-1.14,-1.18,0.21,-0.1
2022-02-17 5:51:49.2250 p.m.,0.51,0.35,-1.18,-0.61,-0.28,-0.03
2022-02-17 5:51:49.2350 p.m.,0.61,0.31,-1.26,-0.24,-0.51,-0.03
2022-02-17 5:51:49.2450 p.m.,0.61,0.19,-1.31,0.09,-0.69,-0.03
2022-02-17 5:51:49.2550 p.m.,0.5,0.13,-1.28,0.36,-0.83,-0.03
2022-02-17 5:51:49.2650 p.m.,0.36,0.04,-1.11,0.51,-0.95,0.01
2022-02-17 5:51:49.2750 p.m.,0.26,-0.01,-0.76,0.55,-1.03,0.07
2022-02-17 5:51:49.2850 p.m.,0.14,-0.05,-0.33,0.49,-1.08,0.11
2022-02-17 5:51:49.2950 p.m.,-0.11,-0.22,0.02,0.35,-1.07,0.12
2022-02-17 5:51:49.3050 p.m.,-0.46,-0.27,0.3,0.16,-1.0,0.13
2022-02-17 5:51:49.3150 p.m.,-0.71,-0.2,0.48,-0.06,-0.87,0.11
2022-02-17 5:51:49.3250 p.m.,-0.85,-0.12,0.56,-0.24,-0.71,0.09
2022-02-17 5:51:49.3350 p.m.,-0.91,-0.05,0.53,-0.36,-0.51,0.05
2022-02-17 5:51:49.3450 p.m.,-0.81,-0.01,0.36,-0.4,-0.3,0.02
2022-02-17 5:51:49.3550 p.m.,-0.57,0.03,0.15,-0.39,-0.1,-0.0
2022-02-17 5:51:49.3660 p.m.,-0.26,0.04,0.01,-0.33,0.05,-0.01
2022-02-17 5:51:49.3750 p.m.,0.02,0.08,0.01,-0.25,0.14,-0.01
2022-02-17 5:51:49.3860 p.m.,0.19,0.17,0.13,-0.17,0.15,-0.04
2022-02-17 5:51:49.3960 p.m.,0.07,-0.03,0.31,-0.09,0.14,-0.04
2022-02-17 5:51:49.4060 p.m.,0.13,-0.09,0.46,-0.02,0.12,-0.03
2022-02-17 5:51:49.4160 p.m.,0.15,0.0,0.52,0.03,0.1,-0.01
2022-02-17 5:51:49.4260 p.m.,0.0,0.05,0.55,0.07,0.11,0.01
2022-02-17 5:51:49.4360 p.m.,-0.07,0.07,0.53,0.1,0.13,0.02
2022-02-17 5:51:49.4460 p.m.,-0.14,0.07,0.48,0.12,0.17,0.03
2022-02-17 5:51:49.4560 p.m.,-0.12,0.01,0.44,0.14,0.21,0.04
2022-02-17 5:51:49.4660 p.m.,-0.04,-0.02,0.39,0.16,0.23,0.05
2022-02-17 5:51:49.4760 p.m.,0.08,-0.03,0.4,0.18,0.25,0.05
2022-02-17 5:51:49.4860 p.m.,0.17,0.02,0.34,0.19,0.26,0.05
2022-02-17 5:51:49.4960 p.m.,0.28,0.12,0.27,0.2,0.27,0.04
2022-02-17 5:51:49.5060 p.m.,0.34,0.14,0.25,0.2,0.26,0.03
2022-02-17 5:51:49.5160 p.m.,0.46,0.12,0.31,0.18,0.23,0.01
2022-02-17 5:51:49.5260 p.m.,0.46,0.12,0.31,0.15,0.18,0.0
2022-02-17 5:51:49.5360 p.m.,0.48,0.1,0.37,0.11,0.12,-0.01
2022-02-17 5:51:49.5460 p.m.,0.45,0.05,0.29,0.09,0.09,-0.04
2022-02-17 5:51:49.5570 p.m.,0.35,0.06,0.15,0.08,0.08,-0.06
2022-02-17 5:51:49.5650 p.m.,0.35,0.06,0.15,0.06,0.09,-0.07
2022-02-17 5:51:49.5760 p.m.,0.23,0.07,0.02,0.04,0.11,-0.08
2022-02-17 5:51:49.5870 p.m.,0.11,0.04,-0.04,0.03,0.11,-0.08
2022-02-17 5:51:49.5960 p.m.,0.0,-0.0646918398141861,0.0,0.01,0.1,-0.08
2022-02-17 5:51:49.6070 p.m.,-0.09,-0.07,0.0,-0.0,0.07,-0.08
2022-02-17 5:51:49.6170 p.m.,-0.24,-0.2,-0.02,-0.01,0.06,-0.07
2022-02-17 5:51:49.6270 p.m.,-0.24,-0.2,-0.02,-0.01,0.04,-0.06
2022-02-17 5:51:49.6370 p.m.,-0.31,-0.19,-0.08,-0.0,0.03,-0.04
2022-02-17 5:51:49.6470 p.m.,-0.39,-0.15,-0.12,0.01,0.03,-0.03
2022-02-17 5:51:49.6570 p.m.,-0.45,-0.1,-0.17,0.01,0.03,-0.02
2022-02-17 5:51:49.6670 p.m.,-0.5,-0.09,-0.19,0.02,0.04,-0.0
2022-02-17 5:51:49.6770 p.m.,-0.48,-0.1,-0.18,0.01,0.04,0.01
2022-02-17 5:51:49.6880 p.m.,-0.45,-0.09,-0.13,0.0,0.05,0.0
2022-02-17 5:51:49.6970 p.m.,-0.39,-0.09,-0.13,0.0,0.06,0.0
2022-02-17 5:51:49.7070 p.m.,-0.33,-0.05,-0.16,-0.01,0.08,-0.0
2022-02-17 5:51:49.7170 p.m.,-0.27,0.0,-0.16,-0.01,0.09,-0.0
2022-02-17 5:51:49.7270 p.m.,-0.07,0.03,-0.08,-0.02,0.09,-0.0
2022-02-17 5:51:49.7370 p.m.,-0.07,0.03,-0.08,-0.02,0.09,-0.01
2022-02-17 5:51:49.7490 p.m.,0.02,0.03,-0.05,-0.02,0.08,-0.01
2022-02-17 5:51:49.7570 p.m.,0.11,0.0,-0.05,-0.02,0.09,-0.01
2022-02-17 5:51:49.7660 p.m.,0.18,-0.02,-0.05,-0.0,0.09,-0.02
2022-02-17 5:51:49.7780 p.m.,0.2,-0.05,-0.07,0.01,0.11,-0.03
2022-02-17 5:51:49.7880 p.m.,0.2,-0.05,-0.07,0.01,0.11,-0.03
2022-02-17 5:51:49.7980 p.m.,0.17,-0.05,-0.06,0.01,0.11,-0.02
2022-02-17 5:51:49.8080 p.m.,0.13,-0.04,-0.02,0.01,0.1,-0.02
2022-02-17 5:51:49.8180 p.m.,0.1,-0.01,0.01,0.01,0.08,-0.01
2022-02-17 5:51:49.8280 p.m.,0.1,-0.01,0.01,0.01,0.06,-0.01
2022-02-17 5:51:49.8380 p.m.,0.11,-0.01,0.0,0.02,0.04,-0.0
2022-02-17 5:51:49.8480 p.m.,0.12,0.02,-0.02,0.02,0.02,0.0
2022-02-17 5:51:49.8580 p.m.,0.12,0.03,-0.04,0.03,0.02,0.0
2022-02-17 5:51:49.8680 p.m.,0.13,0.01,-0.03,0.02,0.01,0.0
2022-02-17 5:51:49.8780 p.m.,0.14,0.0,-0.04,0.02,0.02,-0.0
2022-02-17 5:51:49.8880 p.m.,0.15,0.01,-0.06,0.01,0.03,-0.01
2022-02-17 5:51:49.8980 p.m.,0.15,-0.01,-0.03,0.01,0.04,-0.02
2022-02-17 5:51:49.9080 p.m.,0.15,-0.01,-0.03,-0.0,0.04,-0.02
2022-02-17 5:51:49.9180 p.m.,0.14,-0.02,-0.01,-0.0,0.03,-0.03
2022-02-17 5:51:49.9280 p.m.,0.11,-0.03,-0.03,0.0,0.03,-0.02
2022-02-17 5:51:49.9380 p.m.,0.07,-0.02,-0.05,0.0,0.02,-0.02
2022-02-17 5:51:49.9480 p.m.,0.03,0.0,-0.03,0.01,0.0,-0.0
2022-02-17 5:51:49.9580 p.m.,0.03,-0.02,-0.03,0.02,-0.02,0.01
2022-02-17 5:51:49.9680 p.m.,0.04,-0.03,-0.02,0.02,-0.04,0.01
2022-02-17 5:51:49.9780 p.m.,0.08,-0.03,-0.01,0.03,-0.05,0.01
2022-02-17 5:51:49.9880 p.m.,0.11,-0.02,-0.02,0.02,-0.04,0.01
2022-02-17 5:51:49.9980 p.m.,0.12,0.01,-0.03,0.02,-0.03,-0.0
2022-02-17 5:51:50.0090 p.m.,0.13,0.03,-0.02,0.0,-0.02,-0.01
2022-02-17 5:51:50.0190 p.m.,0.13,0.05,0.01,-0.01,-0.01,-0.02
2022-02-17 5:51:50.0280 p.m.,0.13,0.05,0.02,-0.02,0.0,-0.02
2022-02-17 5:51:50.0380 p.m.,0.1,0.04,0.02,-0.02,0.02,-0.03
2022-02-17 5:51:50.0480 p.m.,0.07,0.02,-0.01,-0.02,0.02,-0.03
2022-02-17 5:51:50.0590 p.m.,0.04,0.0,0.0,-0.01,0.02,-0.03
2022-02-17 5:51:50.0690 p.m.,0.01,-0.04,0.01,0.0,0.02,-0.03
2022-02-17 5:51:50.0780 p.m.,-0.03,-0.07,0.0,0.01,0.02,-0.02
2022-02-17 5:51:50.0890 p.m.,-0.06,-0.08,0.0,0.01,0.0,-0.0
2022-02-17 5:51:50.0990 p.m.,-0.09,-0.04,0.03,0.01,-0.02,0.01
2022-02-17 5:51:50.1090 p.m.,-0.09,0.01,0.05,0.02,-0.02,0.01
2022-02-17 5:51:50.1190 p.m.,-0.05,0.02,0.03,0.03,-0.03,0.01
2022-02-17 5:51:50.1290 p.m.,0.02,0.0,-0.02,0.04,-0.02,0.01
2022-02-17 5:51:50.1390 p.m.,0.09,-0.03,-0.02,0.03,-0.02,0.0
2022-02-17 5:51:50.1490 p.m.,0.12,-0.02,0.02,0.02,-0.01,-0.0
2022-02-17 5:51:50.1590 p.m.,0.11,0.0,0.05,0.0,0.0,-0.01
2022-02-17 5:51:50.1690 p.m.,0.08,0.01,0.05,0.0,0.02,-0.02
2022-02-17 5:51:50.1790 p.m.,0.08,0.03,-0.02,0.01,0.03,-0.02
2022-02-17 5:51:50.1890 p.m.,0.06,0.04,-0.05,0.02,0.02,-0.02
2022-02-17 5:51:50.1990 p.m.,0.06,0.04,-0.04,0.02,0.02,-0.02
2022-02-17 5:51:50.2090 p.m.,0.05,0.01,-0.03,0.02,0.01,-0.02
2022-02-17 5:51:50.2200 p.m.,0.02,-0.03,0.0,0.01,0.01,-0.02
2022-02-17 5:51:50.2290 p.m.,-0.02,-0.04,0.0,0.01,0.0,-0.01
2022-02-17 5:51:50.2390 p.m.,-0.05,-0.04,0.0,0.01,-0.0,-0.01
2022-02-17 5:51:50.2490 p.m.,-0.06,-0.04,0.01,0.01,-0.02,0.0
2022-02-17 5:51:50.2590 p.m.,-0.04,-0.03,-0.01,0.02,-0.02,0.01
2022-02-17 5:51:50.2690 p.m.,-0.02,-0.03,-0.02,0.02,-0.04,0.0
2022-02-17 5:51:50.2790 p.m.,0.03,-0.03,-0.03,0.01,-0.04,-0.0
2022-02-17 5:51:50.2890 p.m.,0.07,-0.02,0.0,0.01,-0.04,-0.01
2022-02-17 5:51:50.2990 p.m.,0.08,-0.04,0.01,0.0,-0.01,-0.02
2022-02-17 5:51:50.3100 p.m.,0.06,-0.04,-0.02,-0.01,0.01,-0.01
2022-02-17 5:51:50.3200 p.m.,0.02,-0.01,0.0,-0.02,0.01,-0.02
2022-02-17 5:51:50.3300 p.m.,-0.01,0.0,0.04,-0.02,0.01,-0.02
2022-02-17 5:51:50.3390 p.m.,-0.02,-0.01,0.01,-0.01,0.0,-0.02
2022-02-17 5:51:50.3470 p.m.,-0.02,-0.01,0.01,0.0,-0.01,-0.02
2022-02-17 5:51:50.3630 p.m.,-0.04,0.02,-0.01,0.02,-0.01,-0.01
2022-02-17 5:51:50.3730 p.m.,-0.06,0.01,0.01,0.02,-0.01,-0.01
2022-02-17 5:51:50.3830 p.m.,-0.07,0.0,0.03,0.01,-0.0,-0.01
2022-02-17 5:51:50.3930 p.m.,-0.09,0.02,0.03,0.0,-0.0,-0.0
2022-02-17 5:51:50.4030 p.m.,-0.08,0.01,0.05,0.0,0.0,-0.0
2022-02-17 5:51:50.4130 p.m.,-0.04,-0.02,0.06,0.0,-0.0,-0.01
2022-02-17 5:51:50.4230 p.m.,0.01,-0.04,0.03,0.01,0.01,-0.01
2022-02-17 5:51:50.4330 p.m.,0.04,-0.04,0.01,0.01,0.01,-0.01
2022-02-17 5:51:50.4430 p.m.,0.02,-0.02,0.02,0.01,0.02,-0.02
2022-02-17 5:51:50.4540 p.m.,0.01,-0.01,0.04,-0.0,0.02,-0.02
2022-02-17 5:51:50.4630 p.m.,-0.01,0.01,0.03,-0.0,0.04,-0.02
2022-02-17 5:51:50.4740 p.m.,-0.02,-0.02,0.02,-0.0,0.04,-0.02
2022-02-17 5:51:50.4830 p.m.,-0.01,-0.05,0.01,-0.0,0.04,-0.02
2022-02-17 5:51:50.4940 p.m.,-0.01,-0.03,0.0,0.01,0.03,-0.02
2022-02-17 5:51:50.5040 p.m.,-0.02,-0.01,-0.03,0.02,0.02,-0.02
2022-02-17 5:51:50.5140 p.m.,-0.03,0.0,-0.03,0.02,0.02,-0.01
2022-02-17 5:51:50.5240 p.m.,-0.05,-0.01,-0.02,0.01,0.01,-0.01
2022-02-17 5:51:50.5340 p.m.,-0.05,-0.02,0.01,0.01,0.0,0.0
2022-02-17 5:51:50.5440 p.m.,-0.02,-0.01,0.0,0.01,0.0,-0.0
2022-02-17 5:51:50.5540 p.m.,0.01,-0.01,-0.03,0.01,0.0,-0.0
2022-02-17 5:51:50.5640 p.m.,0.04,-0.01,-0.04,0.01,0.0,-0.01
2022-02-17 5:51:50.5740 p.m.,0.07,-0.02,-0.04,0.01,0.01,-0.01
2022-02-17 5:51:50.5840 p.m.,0.07,0.01,-0.03,0.0,0.03,-0.01
2022-02-17 5:51:50.5940 p.m.,0.05,0.03,-0.04,-0.0,0.03,-0.02
2022-02-17 5:51:50.6040 p.m.,0.04,0.02,-0.03,-0.01,0.04,-0.02
2022-02-17 5:51:50.6140 p.m.,0.05,-0.01,-0.01,-0.01,0.03,-0.02
2022-02-17 5:51:50.6240 p.m.,0.07,-0.05,0.0,-0.01,0.03,-0.03
2022-02-17 5:51:50.6350 p.m.,0.07,-0.05,-0.02,-0.01,0.02,-0.02
2022-02-17 5:51:50.6440 p.m.,0.05,-0.04,-0.03,-0.0,0.02,-0.02
2022-02-17 5:51:50.6540 p.m.,0.05,-0.02,0.0,-0.01,0.0,-0.01
2022-02-17 5:51:50.6640 p.m.,0.04,0.0,0.01,-0.0,-0.0,-0.01
2022-02-17 5:51:50.6740 p.m.,0.04,0.01,0.01,-0.0,-0.0,-0.01
2022-02-17 5:51:50.6840 p.m.,0.05,0.0,-0.02,0.01,0.0,-0.01
Time,0.06,0.0,-0.05,0.01,0.0,-0.01
2022-02-17 5:51:50.7050 p.m.,0.07,0.0,-0.02,0.0,-0.0,-0.01
2022-02-17 5:51:50.7140 p.m.,0.06,0.02,0.02,0.0,-0.0,-0.01
2022-02-17 5:51:50.7250 p.m.,0.04,0.03,0.02,0.0,0.0,-0.01
2022-02-17 5:51:50.7350 p.m.,0.05,0.0,-0.02,0.01,0.01,-0.01
2022-02-17 5:51:50.7450 p.m.,0.06,-0.02,-0.04,0.01,0.01,-0.01
2022-02-17 5:51:50.7540 p.m.,0.07,-0.04,-0.03,0.01,0.01,-0.01
2022-02-17 5:51:50.7650 p.m.,0.07,-0.06,-0.02,0.01,0.01,-0.01
2022-02-17 5:51:50.7750 p.m.,0.05,-0.04,-0.02,0.01,0.01,-0.01
2022-02-17 5:51:50.7850 p.m.,0.03,-0.02,-0.03,0.01,-0.0,-0.0
2022-02-17 5:51:50.7950 p.m.,0.03,0.01,-0.03,0.01,-0.0,-0.01
2022-02-17 5:51:50.8050 p.m.,0.02,0.01,-0.04,0.0,-0.01,-0.01
2022-02-17 5:51:50.8150 p.m.,0.04,-0.02,-0.04,0.01,-0.01,-0.0
2022-02-17 5:51:50.8250 p.m.,0.06,-0.04,-0.04,0.0,-0.0,-0.01
2022-02-17 5:51:50.8350 p.m.,0.06,-0.04,-0.03,0.0,-0.01,-0.01
2022-02-17 5:51:50.8450 p.m.,0.04,-0.01,-0.03,0.01,-0.01,-0.01
2022-02-17 5:51:50.8550 p.m.,0.02,0.02,-0.04,0.0,-0.01,-0.01
2022-02-17 5:51:50.8650 p.m.,0.01,0.01,-0.05,0.0,-0.02,-0.01
2022-02-17 5:51:50.8750 p.m.,0.01,0.0,-0.01,0.0,-0.02,-0.0
2022-02-17 5:51:50.8850 p.m.,0.01,-0.01,-0.01,0.0,-0.02,-0.0
2022-02-17 5:51:50.8950 p.m.,0.01,-0.02,-0.03,0.0,-0.01,-0.0
2022-02-17 5:51:50.9050 p.m.,0.03,-0.05,-0.04,0.0,-0.01,-0.01
2022-02-17 5:51:50.9150 p.m.,0.03,-0.07,-0.02,-0.0,-0.0,-0.01
2022-02-17 5:51:50.9250 p.m.,0.04,-0.03,0.01,-0.01,-0.0,-0.01
2022-02-17 5:51:50.9350 p.m.,0.02,0.02,0.02,-0.01,-0.0,-0.01
2022-02-17 5:51:50.9450 p.m.,0.01,0.04,0.02,-0.01,-0.01,-0.01
2022-02-17 5:51:50.9550 p.m.,0.0,0.01,0.02,-0.01,-0.0,-0.01
2022-02-17 5:51:50.9650 p.m.,0.01,-0.03,0.01,0.0,0.0,-0.01
2022-02-17 5:51:50.9760 p.m.,0.03,-0.05,0.01,0.0,-0.0,-0.01
2022-02-17 5:51:50.9860 p.m.,0.02,-0.02,0.02,0.0,-0.0,-0.0
2022-02-17 5:51:50.9960 p.m.,0.0,0.0,0.04,0.01,0.0,-0.0
2022-02-17 5:51:51.0060 p.m.,-0.04,0.0,0.0,0.02,0.0,-0.0
2022-02-17 5:51:51.0160 p.m.,-0.04,0.01,-0.03,0.02,0.01,-0.0
2022-02-17 5:51:51.0260 p.m.,-0.04,0.02,-0.03,0.02,0.01,-0.0
2022-02-17 5:51:51.0360 p.m.,-0.02,0.01,-0.01,0.02,0.02,-0.01
2022-02-17 5:51:51.0460 p.m.,0.0,-0.02,0.0,0.01,0.02,-0.01
2022-02-17 5:51:51.0560 p.m.,0.01,-0.03,-0.03,0.01,0.03,-0.01
2022-02-17 5:51:51.0660 p.m.,0.02,-0.03,-0.05,0.02,0.03,-0.01
2022-02-17 5:51:51.0760 p.m.,0.02,-0.05,-0.07,0.02,0.03,-0.01
2022-02-17 5:51:51.0860 p.m.,0.0,-0.05,-0.05,0.01,0.02,-0.01
2022-02-17 5:51:51.0960 p.m.,-0.01,-0.03,-0.03,0.01,0.01,-0.01
2022-02-17 5:51:51.1060 p.m.,0.0,-0.01,-0.04,0.01,0.0,-0.0
2022-02-17 5:51:51.1160 p.m.,0.01,-0.01,-0.03,-0.0,-0.0,-0.0
2022-02-17 5:51:51.1260 p.m.,0.03,-0.03,-0.04,0.0,-0.01,-0.01
2022-02-17 5:51:51.1360 p.m.,0.03,-0.02,-0.04,-0.0,-0.01,-0.01
2022-02-17 5:51:51.1460 p.m.,0.03,-0.03,-0.04,-0.01,-0.01,-0.01
2022-02-17 5:51:51.1560 p.m.,0.01,-0.03,-0.02,-0.02,-0.02,-0.01
2022-02-17 5:51:51.1660 p.m.,0.01,-0.02,0.01,-0.02,-0.02,-0.01
2022-02-17 5:51:51.1760 p.m.,0.0,0.0,0.03,-0.02,-0.02,-0.01
2022-02-17 5:51:51.1860 p.m.,-0.01,0.02,0.01,-0.01,-0.02,-0.01
2022-02-17 5:51:51.1960 p.m.,-0.01,0.02,0.01,-0.01,-0.02,-0.0
2022-02-17 5:51:51.2070 p.m.,0.0,0.01,0.02,-0.01,-0.03,-0.01
2022-02-17 5:51:51.2170 p.m.,-0.01,-0.01,0.06,-0.01,-0.03,-0.0
2022-02-17 5:51:51.2270 p.m.,0.0,-0.02,0.08,-0.01,-0.03,-0.0
2022-02-17 5:51:51.2370 p.m.,0.01,-0.02,0.08,-0.01,-0.02,-0.0
2022-02-17 5:51:51.2470 p.m.,0.01,-0.01,0.07,-0.0,0.01,-0.01
2022-02-17 5:51:51.2570 p.m.,0.02,-0.01,0.02,0.01,0.02,-0.01
2022-02-17 5:51:51.2670 p.m.,0.03,-0.01,0.01,0.01,0.03,-0.01
2022-02-17 5:51:51.2770 p.m.,0.04,0.0,0.05,0.01,0.03,-0.02
2022-02-17 5:51:51.2870 p.m.,0.01,0.0,0.07,0.01,0.03,-0.01
2022-02-17 5:51:51.2970 p.m.,-0.02,0.01,0.04,0.01,0.04,-0.01
2022-02-17 5:51:51.3070 p.m.,-0.03,0.03,0.01,0.01,0.03,-0.01
2022-02-17 5:51:51.3170 p.m.,-0.04,0.01,-0.01,0.02,0.03,-0.01
2022-02-17 5:51:51.3270 p.m.,-0.02,-0.01,-0.02,0.03,0.03,-0.0
2022-02-17 5:51:51.3370 p.m.,0.0,-0.03,-0.04,0.03,0.03,-0.0
2022-02-17 5:51:51.3470 p.m.,0.02,-0.04,-0.06,0.03,0.02,-0.0
2022-02-17 5:51:51.3570 p.m.,0.04,-0.03,-0.06,0.02,0.01,-0.0
2022-02-17 5:51:51.3670 p.m.,0.04,-0.03,-0.04,0.02,0.01,-0.0
2022-02-17 5:51:51.3770 p.m.,0.03,-0.04,-0.05,0.01,0.01,-0.0
2022-02-17 5:51:51.3870 p.m.,0.02,-0.02,-0.07,0.0,0.01,-0.01
2022-02-17 5:51:51.3970 p.m.,0.01,-0.02,-0.07,-0.01,0.01,-0.01
2022-02-17 5:51:51.4070 p.m.,0.02,-0.03,-0.07,-0.01,0.0,-0.01
2022-02-17 5:51:51.4180 p.m.,0.04,-0.02,-0.06,-0.01,-0.01,-0.01
2022-02-17 5:51:51.4280 p.m.,0.03,-0.01,-0.05,-0.01,-0.01,-0.01
2022-02-17 5:51:51.4370 p.m.,0.04,-0.01,-0.06,-0.0,-0.02,-0.01
2022-02-17 5:51:51.4470 p.m.,0.04,-0.02,-0.05,-0.01,-0.02,-0.0
2022-02-17 5:51:51.4580 p.m.,0.02,-0.01,-0.02,-0.01,-0.02,-0.0
2022-02-17 5:51:51.4680 p.m.,0.01,-0.01,0.0,-0.02,-0.02,-0.0
2022-02-17 5:51:51.4780 p.m.,0.02,-0.03,0.01,-0.01,-0.02,-0.0
2022-02-17 5:51:51.4880 p.m.,0.03,-0.02,0.01,-0.01,-0.01,-0.0
2022-02-17 5:51:51.4980 p.m.,0.03,0.01,0.0,-0.01,-0.02,-0.0
2022-02-17 5:51:51.5080 p.m.,0.03,0.02,0.02,-0.01,-0.02,-0.0
2022-02-17 5:51:51.5180 p.m.,0.04,0.01,0.04,-0.0,-0.01,-0.0
2022-02-17 5:51:51.5280 p.m.,0.04,-0.01,0.04,-0.0,-0.0,-0.01
2022-02-17 5:51:51.5380 p.m.,0.05,-0.01,0.02,0.0,0.01,-0.01
2022-02-17 5:51:51.5480 p.m.,0.04,-0.01,0.01,0.01,0.02,-0.01
2022-02-17 5:51:51.5580 p.m.,0.04,0.0,0.02,0.01,0.02,-0.01
2022-02-17 5:51:51.5680 p.m.,0.03,-0.01,0.02,0.0,0.02,-0.01
2022-02-17 5:51:51.5780 p.m.,0.01,-0.02,0.03,0.01,0.02,-0.01
2022-02-17 5:51:51.5880 p.m.,0.0,-0.01,0.02,0.01,0.02,-0.0
2022-02-17 5:51:51.5980 p.m.,0.0,0.0,0.0,0.02,0.01,-0.0
2022-02-17 5:51:51.6080 p.m.,0.01,0.0,-0.02,0.02,0.01,-0.0
2022-02-17 5:51:51.6180 p.m.,0.02,0.0,-0.02,0.01,0.0,-0.01
2022-02-17 5:51:51.6280 p.m.,0.02,0.0,-0.01,0.02,0.01,-0.0
2022-02-17 5:51:51.6380 p.m.,0.02,-0.03,-0.04,0.01,0.01,-0.0
2022-02-17 5:51:51.6490 p.m.,0.03,-0.04,-0.04,0.01,0.01,-0.01
2022-02-17 5:51:51.6580 p.m.,0.04,-0.03,-0.05,0.0,0.01,-0.01
2022-02-17 5:51:51.6690 p.m.,0.04,0.0,-0.07,-0.0,0.01,-0.01
2022-02-17 5:51:51.6790 p.m.,0.02,0.0,-0.05,-0.0,-0.0,-0.01
2022-02-17 5:51:51.6890 p.m.,0.01,0.02,-0.04,-0.0,-0.0,-0.01
2022-02-17 5:51:51.6990 p.m.,-0.01,0.01,-0.04,-0.0,0.01,-0.01
2022-02-17 5:51:51.7090 p.m.,-0.02,-0.02,-0.07,-0.0,0.0,-0.01
2022-02-17 5:51:51.7190 p.m.,-0.02,-0.05,-0.07,-0.0,0.0,-0.01
2022-02-17 5:51:51.7290 p.m.,-0.01,-0.07,-0.03,-0.0,-0.01,-0.01
2022-02-17 5:51:51.7390 p.m.,-0.01,-0.06,0.01,-0.01,-0.01,-0.0
2022-02-17 5:51:51.7490 p.m.,-0.02,-0.03,0.0,-0.0,-0.02,0.0
2022-02-17 5:51:51.7590 p.m.,-0.02,0.02,-0.01,-0.0,-0.02,0.0
2022-02-17 5:51:51.7690 p.m.,-0.01,0.02,-0.02,-0.0,-0.03,-0.0
2022-02-17 5:51:51.7790 p.m.,0.02,-0.01,-0.02,0.0,-0.02,-0.01
2022-02-17 5:51:51.7890 p.m.,0.04,-0.03,0.0,-0.0,-0.02,-0.01
2022-02-17 5:51:51.7990 p.m.,0.04,-0.01,0.04,-0.01,-0.02,-0.0
2022-02-17 5:51:51.8090 p.m.,0.02,0.03,0.06,-0.01,-0.0,-0.01
2022-02-17 5:51:51.8190 p.m.,0.01,0.03,0.02,0.0,0.01,-0.01
2022-02-17 5:51:51.8300 p.m.,0.02,-0.01,-0.04,0.02,0.02,-0.02
2022-02-17 5:51:51.8390 p.m.,0.02,-0.02,-0.07,0.02,0.03,-0.02
2022-02-17 5:51:51.8490 p.m.,0.0,0.01,-0.02,0.02,0.03,-0.02
2022-02-17 5:51:51.8590 p.m.,-0.03,0.0,0.0,0.01,0.04,-0.02
2022-02-17 5:51:51.8700 p.m.,-0.07,-0.02,-0.01,0.01,0.04,-0.01
2022-02-17 5:51:51.8790 p.m.,-0.08,-0.04,-0.02,0.01,0.04,-0.0
2022-02-17 5:51:51.8900 p.m.,-0.05,-0.05,-0.06,0.03,0.03,-0.0
2022-02-17 5:51:51.9000 p.m.,-0.01,-0.04,-0.11,0.04,0.02,0.0
2022-02-17 5:51:51.9100 p.m.,0.03,-0.04,-0.11,0.04,0.0,0.0
2022-02-17 5:51:51.9200 p.m.,0.03,-0.03,-0.07,0.03,-0.01,0.0
2022-02-17 5:51:51.9300 p.m.,0.02,-0.01,-0.05,0.02,-0.01,0.01
2022-02-17 5:51:51.9400 p.m.,0.04,0.0,-0.03,-0.0,-0.02,0.0
2022-02-17 5:51:51.9500 p.m.,0.05,0.0,-0.01,-0.01,-0.01,-0.0
2022-02-17 5:51:51.9600 p.m.,0.08,-0.01,-0.03,-0.02,-0.0,-0.01
2022-02-17 5:51:51.9700 p.m.,0.09,-0.03,-0.05,-0.02,-0.0,-0.02
2022-02-17 5:51:51.9800 p.m.,0.09,-0.02,-0.05,-0.02,-0.0,-0.02
2022-02-17 5:51:51.9900 p.m.,0.05,-0.01,-0.03,-0.02,-0.01,-0.02
2022-02-17 5:51:52.0000 p.m.,0.0,-0.01,-0.02,-0.02,-0.01,-0.02
2022-02-17 5:51:52.0100 p.m.,-0.05,0.01,-0.01,-0.01,-0.02,-0.01
2022-02-17 5:51:52.0200 p.m.,-0.08,0.02,0.02,-0.0,-0.02,-0.01
2022-02-17 5:51:52.0300 p.m.,-0.09,0.01,0.01,0.0,-0.03,0.0
2022-02-17 5:51:52.0400 p.m.,-0.05,-0.02,0.0,0.01,-0.03,0.01
2022-02-17 5:51:52.0500 p.m.,-0.02,-0.04,0.01,0.02,-0.03,0.0
2022-02-17 5:51:52.0600 p.m.,0.0,-0.03,0.02,0.03,-0.02,0.0
2022-02-17 5:51:52.0700 p.m.,0.02,-0.02,0.02,0.02,-0.01,0.0
2022-02-17 5:51:52.0800 p.m.,0.02,-0.02,0.03,0.02,-0.0,-0.0
2022-02-17 5:51:52.0900 p.m.,0.01,0.0,0.03,0.01,0.0,-0.01
2022-02-17 5:51:52.1000 p.m.,0.02,0.04,0.04,0.01,0.02,-0.01
2022-02-17 5:51:52.1110 p.m.,0.02,0.02,0.02,0.01,0.03,-0.01
2022-02-17 5:51:52.1210 p.m.,0.02,-0.01,-0.02,0.01,0.04,-0.02
2022-02-17 5:51:52.1310 p.m.,0.01,-0.02,-0.04,0.01,0.04,-0.02
2022-02-17 5:51:52.1410 p.m.,-0.01,-0.02,-0.03,0.01,0.03,-0.01
2022-02-17 5:51:52.1510 p.m.,-0.04,-0.02,-0.02,0.01,0.02,-0.01
2022-02-17 5:51:52.1610 p.m.,-0.05,-0.04,-0.02,0.01,0.01,-0.0
2022-02-17 5:51:52.1710 p.m.,-0.03,-0.04,-0.02,0.02,-0.01,-0.0
2022-02-17 5:51:52.1810 p.m.,-0.02,-0.02,-0.05,0.02,-0.02,0.0
2022-02-17 5:51:52.1910 p.m.,0.02,-0.02,-0.04,0.01,-0.03,0.0
2022-02-17 5:51:52.2010 p.m.,0.03,0.01,0.0,-0.0,-0.04,-0.0
2022-02-17 5:51:52.2110 p.m.,0.03,0.02,0.01,-0.01,-0.02,-0.01
2022-02-17 5:51:52.2210 p.m.,0.06,0.01,-0.02,-0.02,-0.0,-0.01
2022-02-17 5:51:52.2310 p.m.,0.06,-0.01,-0.04,-0.02,0.01,-0.02
2022-02-17 5:51:52.2410 p.m.,0.06,-0.01,-0.05,-0.02,0.02,-0.02
2022-02-17 5:51:52.2510 p.m.,0.06,-0.01,-0.03,-0.01,0.02,-0.02
2022-02-17 5:51:52.2610 p.m.,0.05,-0.01,0.0,-0.01,0.01,-0.01
2022-02-17 5:51:52.2710 p.m.,0.03,0.01,0.01,-0.01,-0.0,-0.01
2022-02-17 5:51:52.2810 p.m.,0.02,0.03,0.02,0.0,-0.01,-0.01
2022-02-17 5:51:52.2910 p.m.,0.0,0.04,0.0,0.01,-0.01,-0.01
2022-02-17 5:51:52.3010 p.m.,0.0,0.0,0.0,0.02,0.0,-0.01
2022-02-17 5:51:52.3110 p.m.,-0.01,-0.05,-0.02,0.02,0.02,-0.01
2022-02-17 5:51:52.3210 p.m.,-0.01,-0.05,-0.04,0.02,0.03,-0.01
2022-02-17 5:51:52.3310 p.m.,-0.03,-0.02,-0.04,0.02,0.03,-0.0
2022-02-17 5:51:52.3410 p.m.,-0.02,0.01,-0.03,0.03,0.03,0.0
2022-02-17 5:51:52.3520 p.m.,-0.02,0.01,-0.04,0.03,0.03,0.0
2022-02-17 5:51:52.3620 p.m.,0.01,0.0,-0.04,0.03,0.02,0.0
2022-02-17 5:51:52.3720 p.m.,0.02,0.01,-0.04,0.03,0.01,0.0
2022-02-17 5:51:52.3820 p.m.,0.04,-0.01,-0.05,0.04,0.01,0.0
2022-02-17 5:51:52.3920 p.m.,0.05,-0.03,-0.08,0.03,0.02,0.0
2022-02-17 5:51:52.4020 p.m.,0.05,-0.04,-0.11,0.03,0.03,-0.0
2022-02-17 5:51:52.4120 p.m.,0.06,-0.02,-0.1,0.03,0.03,-0.0
2022-02-17 5:51:52.4220 p.m.,0.07,-0.02,-0.09,0.02,0.03,-0.01
2022-02-17 5:51:52.4320 p.m.,0.07,0.0,-0.09,0.01,0.03,-0.01
2022-02-17 5:51:52.4420 p.m.,0.07,0.0,-0.08,0.01,0.02,-0.01
2022-02-17 5:51:52.4520 p.m.,0.05,-0.01,-0.08,0.0,0.01,-0.01
2022-02-17 5:51:52.4620 p.m.,0.03,-0.01,-0.06,0.0,0.0,-0.01
2022-02-17 5:51:52.4720 p.m.,0.02,-0.01,-0.06,0.0,-0.01,-0.0
2022-02-17 5:51:52.4820 p.m.,0.04,-0.02,-0.05,0.01,-0.03,-0.0
2022-02-17 5:51:52.4920 p.m.,0.05,-0.04,-0.05,0.01,-0.03,0.0
2022-02-17 5:51:52.5020 p.m.,0.05,-0.04,-0.04,0.01,-0.03,0.0
2022-02-17 5:51:52.5120 p.m.,0.04,0.01,-0.05,0.01,-0.03,-0.0
2022-02-17 5:51:52.5220 p.m.,0.02,0.04,-0.04,0.01,-0.02,-0.0
2022-02-17 5:51:52.5320 p.m.,0.01,0.04,-0.02,-0.0,-0.01,-0.0
2022-02-17 5:51:52.5430 p.m.,0.0,0.03,0.0,-0.0,0.0,-0.01
2022-02-17 5:51:52.5520 p.m.,0.0,-0.01,-0.01,-0.0,0.01,-0.01
2022-02-17 5:51:52.5620 p.m.,0.02,-0.04,-0.01,0.01,0.01,-0.01
2022-02-17 5:51:52.5730 p.m.,0.04,-0.02,-0.01,0.02,0.01,-0.01
2022-02-17 5:51:52.5820 p.m.,0.05,-0.01,-0.02,0.03,0.01,-0.01
2022-02-17 5:51:52.5930 p.m.,0.08,-0.02,0.0,0.03,0.01,-0.0
2022-02-17 5:51:52.6030 p.m.,0.12,-0.02,0.01,0.04,0.0,-0.01
2022-02-17 5:51:52.6130 p.m.,0.13,0.02,-0.01,0.03,0.0,-0.0
2022-02-17 5:51:52.6230 p.m.,0.12,0.11,-0.01,0.03,0.0,-0.01
2022-02-17 5:51:52.6330 p.m.,0.1,0.2,-0.02,0.01,0.0,-0.01
2022-02-17 5:51:52.6430 p.m.,0.11,0.23,-0.02,-0.01,0.01,-0.01
2022-02-17 5:51:52.6530 p.m.,0.17,0.21,-0.02,-0.02,0.02,-0.01
2022-02-17 5:51:52.6630 p.m.,0.31,0.14,-0.01,-0.02,0.03,-0.01
2022-02-17 5:51:52.6730 p.m.,0.52,0.02,-0.01,-0.0,0.03,-0.02
2022-02-17 5:51:52.6830 p.m.,0.73,-0.05,-0.02,0.02,0.05,-0.04
2022-02-17 5:51:52.6930 p.m.,0.89,-0.04,-0.09,0.05,0.08,-0.07
2022-02-17 5:51:52.7030 p.m.,0.94,0.04,-0.16,0.06,0.13,-0.1
2022-02-17 5:51:52.7130 p.m.,0.87,0.12,-0.21,0.05,0.2,-0.15
2022-02-17 5:51:52.7230 p.m.,0.69,0.1,-0.26,0.03,0.28,-0.18
2022-02-17 5:51:52.7330 p.m.,0.53,0.01,-0.3,-0.04,0.38,-0.2
2022-02-17 5:51:52.7430 p.m.,0.32,-0.03,-0.35,-0.14,0.46,-0.2
2022-02-17 5:51:52.7530 p.m.,0.03,0.0,-0.47,-0.25,0.5,-0.19
2022-02-17 5:51:52.7630 p.m.,-0.24,0.0,-0.65,-0.31,0.5,-0.16
2022-02-17 5:51:52.7730 p.m.,-0.35,-0.04,-0.82,-0.3,0.46,-0.12
2022-02-17 5:51:52.7830 p.m.,-0.26,-0.09,-0.94,-0.22,0.39,-0.07
2022-02-17 5:51:52.7940 p.m.,-0.03,-0.07,-0.99,-0.09,0.3,-0.02
2022-02-17 5:51:52.8030 p.m.,0.22,-0.04,-0.96,0.05,0.17,0.03
2022-02-17 5:51:52.8130 p.m.,0.46,-0.04,-0.84,0.16,0.02,0.06
2022-02-17 5:51:52.8240 p.m.,0.67,-0.03,-0.59,0.22,-0.12,0.1
2022-02-17 5:51:52.8340 p.m.,0.77,0.04,-0.34,0.23,-0.25,0.12
2022-02-17 5:51:52.8440 p.m.,0.78,0.12,-0.19,0.2,-0.32,0.13
2022-02-17 5:51:52.8540 p.m.,0.72,0.2,-0.11,0.13,-0.26,0.11
2022-02-17 5:51:52.8640 p.m.,0.63,0.25,-0.01,0.07,-0.14,0.09
2022-02-17 5:51:52.8740 p.m.,0.6,0.24,0.0,0.05,-0.03,0.08
2022-02-17 5:51:52.8840 p.m.,0.88,0.17,-0.04,0.06,0.07,0.05
2022-02-17 5:51:52.8940 p.m.,1.03,0.09,-0.02,0.1,0.14,0.05
2022-02-17 5:51:52.9040 p.m.,1.08,0.12,-0.03,0.13,0.2,0.04
2022-02-17 5:51:52.9140 p.m.,1.08,0.22,-0.05,0.15,0.23,0.04
2022-02-17 5:51:52.9240 p.m.,0.97,0.24,-0.07,0.15,0.23,0.05
2022-02-17 5:51:52.9340 p.m.,0.87,0.2,-0.07,0.13,0.2,0.07
2022-02-17 5:51:52.9440 p.m.,0.8,0.17,-0.07,0.1,0.13,0.08
2022-02-17 5:51:52.9540 p.m.,0.71,0.17,-0.08,0.07,0.06,0.13
2022-02-17 5:51:52.9640 p.m.,0.71,0.22,-0.12,0.05,-0.03,0.15
2022-02-17 5:51:52.9740 p.m.,0.68,0.26,-0.17,0.06,-0.12,0.16
2022-02-17 5:51:52.9840 p.m.,0.51,0.07,-0.19,0.08,-0.2,0.17
2022-02-17 5:51:52.9940 p.m.,0.47,0.03,-0.19,0.13,-0.24,0.2
2022-02-17 5:51:53.0050 p.m.,0.44,-0.01,-0.19,0.17,-0.25,0.24
2022-02-17 5:51:53.0140 p.m.,0.43,0.0,-0.15,0.21,-0.25,0.29
2022-02-17 5:51:53.0250 p.m.,0.28,0.14,-0.05,0.21,-0.25,0.31
2022-02-17 5:51:53.0340 p.m.,0.02,0.28,0.09,0.19,-0.26,0.34
2022-02-17 5:51:53.0440 p.m.,-0.22,0.36,0.31,0.11,-0.27,0.36
2022-02-17 5:51:53.0550 p.m.,-0.4,0.33,0.57,0.02,-0.26,0.38
2022-02-17 5:51:53.0650 p.m.,-0.55,0.1,0.8,-0.08,-0.26,0.38
2022-02-17 5:51:53.0750 p.m.,-0.62,-0.16,0.95,-0.15,-0.24,0.38
2022-02-17 5:51:53.0850 p.m.,-0.66,-0.4,0.99,-0.2,-0.2,0.37
2022-02-17 5:51:53.0950 p.m.,-0.65,-0.64,0.95,-0.23,-0.14,0.37
2022-02-17 5:51:53.1050 p.m.,-0.65,-0.71,0.82,-0.21,-0.08,0.39
2022-02-17 5:51:53.1150 p.m.,-0.64,-0.48,0.65,-0.14,-0.08,0.4
2022-02-17 5:51:53.1250 p.m.,-0.6,-0.19,0.51,-0.05,-0.13,0.38
2022-02-17 5:51:53.1350 p.m.,-0.68,0.08,0.43,0.06,-0.27,0.37
2022-02-17 5:51:53.1450 p.m.,-0.81,0.33,0.42,0.18,-0.42,0.4
2022-02-17 5:51:53.1550 p.m.,-0.71,0.52,0.3,0.35,-0.57,0.46
2022-02-17 5:51:53.1650 p.m.,-0.42,0.33,-0.1,0.5,-0.67,0.49
2022-02-17 5:51:53.1750 p.m.,-0.13,0.04,-0.57,0.61,-0.67,0.48
2022-02-17 5:51:53.1850 p.m.,-0.02,-0.3,-0.95,0.68,-0.57,0.46
2022-02-17 5:51:53.1950 p.m.,0.0,-0.6,-1.2,0.63,-0.38,0.44
2022-02-17 5:51:53.2050 p.m.,-0.02,-0.61,-1.51,0.21,-0.01,0.36
2022-02-17 5:51:53.2150 p.m.,-0.09,-0.51,-2.03,-0.28,0.33,0.26
2022-02-17 5:51:53.2250 p.m.,-0.21,-0.46,-2.54,-0.45,0.41,0.2
2022-02-17 5:51:53.2350 p.m.,-0.32,-0.38,-2.36,-0.3,0.26,0.16
2022-02-17 5:51:53.2460 p.m.,-0.39,-0.51,-2.03,0.01,-0.08,0.19
2022-02-17 5:51:53.2550 p.m.,-0.47,-0.33,-1.7,0.31,-0.51,0.23
2022-02-17 5:51:53.2650 p.m.,-0.68,0.02,-1.35,0.5,-0.95,0.28
2022-02-17 5:51:53.2760 p.m.,-1.03,0.2,-0.92,0.57,-1.28,0.34
2022-02-17 5:51:53.2860 p.m.,-1.24,0.26,-0.58,0.53,-1.49,0.4
2022-02-17 5:51:53.2960 p.m.,-1.27,0.3,-0.42,0.44,-1.59,0.43
2022-02-17 5:51:53.3060 p.m.,-1.24,0.29,-0.41,0.34,-1.61,0.41
2022-02-17 5:51:53.3160 p.m.,-1.29,0.27,-0.54,0.26,-1.56,0.37
2022-02-17 5:51:53.3260 p.m.,-1.28,0.23,-0.71,0.21,-1.48,0.33
2022-02-17 5:51:53.3360 p.m.,-1.14,0.19,-0.83,0.18,-1.36,0.3
2022-02-17 5:51:53.3460 p.m.,-0.92,0.1,-0.91,0.17,-1.24,0.28
2022-02-17 5:51:53.3560 p.m.,-0.7,0.0,-0.98,0.19,-1.12,0.25
2022-02-17 5:51:53.3660 p.m.,-0.51,0.01,-1.06,0.22,-1.01,0.24
2022-02-17 5:51:53.3760 p.m.,-0.34,0.1,-1.08,0.28,-0.92,0.19
2022-02-17 5:51:53.3860 p.m.,-0.34,-0.04,-1.12,0.33,-0.83,0.16
2022-02-17 5:51:53.3960 p.m.,-0.31,-0.19,-1.15,0.4,-0.76,0.14
2022-02-17 5:51:53.4060 p.m.,-0.29,-0.18,-1.14,0.45,-0.68,0.12
2022-02-17 5:51:53.4160 p.m.,-0.39,-0.22,-1.14,0.5,-0.62,0.11
2022-02-17 5:51:53.4260 p.m.,-0.48,-0.23,-1.11,0.52,-0.54,0.11
2022-02-17 5:51:53.4360 p.m.,-0.71,-0.01,-1.11,0.53,-0.48,0.11
2022-02-17 5:51:53.4460 p.m.,-0.89,0.15,-1.15,0.54,-0.45,0.09
2022-02-17 5:51:53.4560 p.m.,-1.04,0.1,-1.12,0.54,-0.44,0.08
2022-02-17 5:51:53.4660 p.m.,-1.06,0.03,-1.08,0.55,-0.45,0.09
2022-02-17 5:51:53.4760 p.m.,-0.99,0.03,-1.05,0.57,-0.46,0.11
2022-02-17 5:51:53.4860 p.m.,-0.95,0.04,-1.11,0.6,-0.49,0.11
2022-02-17 5:51:53.4960 p.m.,-1.0,-0.02,-1.19,0.64,-0.49,0.12
2022-02-17 5:51:53.5060 p.m.,-1.01,-0.07,-1.32,0.67,-0.46,0.12
2022-02-17 5:51:53.5160 p.m.,-0.95,-0.16,-1.48,0.7,-0.42,0.12
2022-02-17 5:51:53.5270 p.m.,-0.87,-0.21,-1.6,0.74,-0.4,0.11
2022-02-17 5:51:53.5370 p.m.,-0.72,-0.23,-1.64,0.76,-0.39,0.11
2022-02-17 5:51:53.5470 p.m.,-0.53,-0.2,-1.66,0.78,-0.38,0.09
2022-02-17 5:51:53.5570 p.m.,-0.37,-0.2,-1.71,0.8,-0.38,0.06
2022-02-17 5:51:53.5670 p.m.,-0.31,-0.23,-1.77,0.81,-0.39,0.02
2022-02-17 5:51:53.5770 p.m.,-0.24,-0.27,-1.81,0.8,-0.43,-0.01
2022-02-17 5:51:53.5870 p.m.,-0.18,-0.25,-1.8,0.78,-0.48,-0.03
2022-02-17 5:51:53.5970 p.m.,-0.16,-0.3,-1.75,0.74,-0.54,-0.05
2022-02-17 5:51:53.6070 p.m.,-0.17,-0.48,-1.69,0.69,-0.59,-0.07
2022-02-17 5:51:53.6170 p.m.,-0.23,-0.87,-1.69,0.62,-0.62,-0.1
2022-02-17 5:51:53.6270 p.m.,-0.32,-1.32,-1.72,0.55,-0.64,-0.13
2022-02-17 5:51:53.6370 p.m.,-0.47,-1.68,-1.78,0.51,-0.64,-0.17
2022-02-17 5:51:53.6470 p.m.,-0.67,-1.96,-1.88,0.49,-0.61,-0.21
2022-02-17 5:51:53.6570 p.m.,-0.95,-2.0,-2.11,0.49,-0.44,-0.26
2022-02-17 5:51:53.6670 p.m.,-1.24,-1.99,-2.53,0.49,-0.1,-0.37
2022-02-17 5:51:53.6770 p.m.,-1.58,-2.4,-3.19,0.45,0.29,-0.47
2022-02-17 5:51:53.6870 p.m.,-1.92,-3.37,-3.54,0.33,0.58,-0.5
2022-02-17 5:51:53.6970 p.m.,-1.99,-4.09,-2.95,0.14,0.77,-0.47
2022-02-17 5:51:53.7070 p.m.,-2.11,-4.35,-2.18,-0.11,0.88,-0.41
2022-02-17 5:51:53.7170 p.m.,-2.37,-4.4,-1.61,-0.4,0.94,-0.34
2022-02-17 5:51:53.7270 p.m.,-2.57,-4.64,-1.03,-0.72,0.98,-0.26
2022-02-17 5:51:53.7380 p.m.,-2.77,-5.1,-0.65,-1.0,1.02,-0.17
2022-02-17 5:51:53.7470 p.m.,-2.85,-5.33,-0.57,-1.16,1.13,-0.13
2022-02-17 5:51:53.7580 p.m.,-2.8,-4.92,-1.13,-1.35,1.59,-0.18
2022-02-17 5:51:53.7680 p.m.,-2.21,-3.83,-2.63,-1.69,2.3,-0.39
2022-02-17 5:51:53.7780 p.m.,-1.17,-2.54,-4.41,-2.0,2.65,-0.63
2022-02-17 5:51:53.7880 p.m.,-0.53,-1.4,-4.28,-2.22,2.57,-0.83
2022-02-17 5:51:53.7980 p.m.,-0.13,-0.41,-3.0,-2.42,2.28,-0.98
2022-02-17 5:51:53.8080 p.m.,0.42,0.12,-2.15,-2.67,2.07,-1.06
2022-02-17 5:51:53.8180 p.m.,1.41,0.24,-2.0,-2.96,2.06,-1.17
2022-02-17 5:51:53.8280 p.m.,2.2,0.42,-2.12,-3.26,1.86,-1.26
2022-02-17 5:51:53.8380 p.m.,2.62,0.75,-1.75,-3.48,1.28,-1.22
2022-02-17 5:51:53.8480 p.m.,2.84,1.08,-0.48,-3.57,0.53,-1.21
2022-02-17 5:51:53.8580 p.m.,2.24,1.19,0.47,-3.45,-0.19,-1.27
2022-02-17 5:51:53.8680 p.m.,1.21,0.85,1.03,-3.13,-0.59,-1.27
2022-02-17 5:51:53.8780 p.m.,0.17,0.26,1.0,-2.71,-0.59,-1.17
2022-02-17 5:51:53.8880 p.m.,-0.77,-0.43,0.85,-2.47,-0.59,-1.02
2022-02-17 5:51:53.8980 p.m.,-1.69,-1.45,1.63,-2.49,-0.77,-0.91
2022-02-17 5:51:53.9080 p.m.,-2.21,-2.4,3.14,-2.62,-0.82,-0.82
2022-02-17 5:51:53.9180 p.m.,-2.24,-3.0,3.92,-2.79,-0.5,-0.69
2022-02-17 5:51:53.9290 p.m.,-2.1,-3.03,3.79,-2.94,0.18,-0.63
2022-02-17 5:51:53.9380 p.m.,-2.18,-3.04,3.55,-3.02,0.75,-0.64
2022-02-17 5:51:53.9480 p.m.,-1.88,-2.69,3.06,-3.0,1.41,-0.53
2022-02-17 5:51:53.9580 p.m.,-0.7,-1.95,2.39,-2.89,1.99,-0.42
2022-02-17 5:51:53.9680 p.m.,-0.06,-1.78,1.89,-2.76,2.53,-0.39
2022-02-17 5:51:53.9790 p.m.,-0.15,-1.4,1.96,-2.77,2.71,-0.44
2022-02-17 5:51:53.9890 p.m.,-0.71,-0.76,2.02,-2.82,2.69,-0.44
2022-02-17 5:51:53.9990 p.m.,-0.75,-0.15,2.09,-2.81,2.55,-0.32
2022-02-17 5:51:54.0090 p.m.,-0.54,-0.05,1.72,-2.73,2.26,-0.15
2022-02-17 5:51:54.0190 p.m.,-0.51,-0.15,1.61,-2.5,1.84,0.0
2022-02-17 5:51:54.0290 p.m.,-0.87,-0.37,1.48,-2.17,1.36,0.11
2022-02-17 5:51:54.0390 p.m.,-1.18,-0.57,1.55,-1.88,0.89,0.21
2022-02-17 5:51:54.0490 p.m.,-1.15,-0.35,1.89,-1.67,0.61,0.24
2022-02-17 5:51:54.0590 p.m.,-0.87,0.19,2.41,-1.53,0.62,0.23
2022-02-17 5:51:54.0690 p.m.,-1.17,0.91,2.83,-1.42,0.83,0.31
2022-02-17 5:51:54.0790 p.m.,-1.03,1.43,3.57,-1.36,1.22,0.37
2022-02-17 5:51:54.0890 p.m.,-1.04,1.7,4.21,-1.36,1.58,0.38
2022-02-17 5:51:54.0990 p.m.,-1.48,2.04,4.83,-1.32,1.82,0.36
2022-02-17 5:51:54.1090 p.m.,-1.67,2.58,5.04,-1.15,1.85,0.38
2022-02-17 5:51:54.1190 p.m.,-1.44,3.08,4.62,-0.84,1.57,0.41
2022-02-17 5:51:54.1290 p.m.,-1.05,3.46,3.83,-0.48,1.11,0.42
2022-02-17 5:51:54.1390 p.m.,-0.69,3.73,3.24,-0.14,0.63,0.43
2022-02-17 5:51:54.1490 p.m.,-0.36,3.92,2.77,0.14,0.17,0.49
2022-02-17 5:51:54.1590 p.m.,-0.14,4.13,2.46,0.36,-0.18,0.58
2022-02-17 5:51:54.1690 p.m.,-0.15,4.34,2.28,0.58,-0.39,0.69
2022-02-17 5:51:54.1790 p.m.,-0.47,4.31,2.13,0.78,-0.42,0.83
2022-02-17 5:51:54.1890 p.m.,-0.67,4.15,1.84,0.97,-0.41,1.0
2022-02-17 5:51:54.2000 p.m.,-0.87,4.1,1.49,1.16,-0.54,1.15
2022-02-17 5:51:54.2100 p.m.,-1.06,4.02,1.13,1.31,-0.76,1.24
2022-02-17 5:51:54.2190 p.m.,-1.18,3.81,0.73,1.37,-0.89,1.27
2022-02-17 5:51:54.2300 p.m.,-1.22,3.29,-0.05,1.25,-0.89,1.24
2022-02-17 5:51:54.2400 p.m.,-1.04,2.24,-1.27,0.87,-0.68,1.17
2022-02-17 5:51:54.2500 p.m.,-0.62,0.8,-2.85,0.08,-0.16,0.99
2022-02-17 5:51:54.2600 p.m.,-0.01,-1.4,-4.85,-1.27,0.88,0.63
2022-02-17 5:51:54.2700 p.m.,0.58,-4.98,-7.76,-2.24,2.14,0.05
2022-02-17 5:51:54.2800 p.m.,1.99,-9.41,-11.95,-2.02,2.43,-0.56
2022-02-17 5:51:54.2900 p.m.,3.9,-11.15,-13.39,-1.33,1.56,-0.98
2022-02-17 5:51:54.3000 p.m.,5.36,-9.38,-9.26,-0.78,0.94,-0.81
2022-02-17 5:51:54.3100 p.m.,5.7,-4.44,-4.95,-0.38,0.54,-0.36
2022-02-17 5:51:54.3200 p.m.,4.17,3.17,-3.07,-0.02,0.5,0.02
2022-02-17 5:51:54.3300 p.m.,2.59,7.83,-2.16,0.31,0.73,0.27
2022-02-17 5:51:54.3400 p.m.,1.59,9.93,-1.03,0.59,1.18,0.49
2022-02-17 5:51:54.3500 p.m.,1.1,9.97,0.55,0.64,1.53,0.69
2022-02-17 5:51:54.3600 p.m.,0.03,7.39,2.21,0.49,1.43,0.86
2022-02-17 5:51:54.3700 p.m.,-1.36,2.37,3.44,0.37,0.74,1.04
2022-02-17 5:51:54.3800 p.m.,-2.58,-3.82,4.98,0.23,-0.05,1.42
2022-02-17 5:51:54.3900 p.m.,-4.14,-8.87,3.91,0.23,-0.59,1.73
2022-02-17 5:51:54.4000 p.m.,-5.41,-10.13,0.95,0.5,-1.11,1.55
2022-02-17 5:51:54.4100 p.m.,-4.8,-9.69,-2.37,1.08,-1.41,1.0
2022-02-17 5:51:54.4210 p.m.,-0.6,-10.86,-6.2,1.4,-1.44,0.57
2022-02-17 5:51:54.4300 p.m.,6.62,-9.28,-5.06,1.33,-1.45,0.55
2022-02-17 5:51:54.4400 p.m.,11.75,-2.49,2.07,1.14,-1.71,0.58
2022-02-17 5:51:54.4510 p.m.,11.93,4.4,6.94,0.99,-2.59,0.58
2022-02-17 5:51:54.4600 p.m.,8.87,7.25,9.15,1.08,-3.25,0.58
2022-02-17 5:51:54.4710 p.m.,6.8,7.83,8.8,1.36,-3.12,0.45
2022-02-17 5:51:54.4810 p.m.,5.46,7.37,5.36,1.62,-2.27,0.17
2022-02-17 5:51:54.4910 p.m.,3.64,5.82,1.62,1.76,-1.7,-0.37
2022-02-17 5:51:54.5010 p.m.,0.82,3.37,-0.06,1.74,-2.3,-1.18
2022-02-17 5:51:54.5110 p.m.,-2.45,0.34,2.2,1.59,-3.67,-1.83
2022-02-17 5:51:54.5210 p.m.,-4.03,-0.51,5.29,1.55,-4.93,-2.11
2022-02-17 5:51:54.5310 p.m.,-3.22,0.46,6.24,1.86,-5.5,-2.23
2022-02-17 5:51:54.5410 p.m.,-3.12,0.36,4.92,2.34,-5.76,-2.3
2022-02-17 5:51:54.5510 p.m.,-3.76,-0.78,3.27,2.82,-5.77,-2.31
2022-02-17 5:51:54.5610 p.m.,-4.31,-2.89,2.35,2.96,-5.23,-1.96
2022-02-17 5:51:54.5710 p.m.,-4.25,-4.72,1.51,2.25,-3.35,-0.67
2022-02-17 5:51:54.5810 p.m.,-1.39,-6.37,1.06,1.33,-1.1,0.3
2022-02-17 5:51:54.5910 p.m.,-0.98,-5.76,0.91,0.93,0.43,0.35
2022-02-17 5:51:54.6010 p.m.,-5.22,-3.95,1.15,0.93,1.42,0.17
2022-02-17 5:51:54.6110 p.m.,-6.65,-2.04,0.8,1.02,1.96,0.19
2022-02-17 5:51:54.6210 p.m.,-4.78,-0.52,0.83,1.11,2.16,0.36
2022-02-17 5:51:54.6310 p.m.,-2.5,0.02,1.16,1.2,2.11,0.49
2022-02-17 5:51:54.6410 p.m.,-1.56,0.1,1.35,1.29,1.9,0.56
2022-02-17 5:51:54.6510 p.m.,-1.33,0.09,1.37,1.41,1.66,0.62
2022-02-17 5:51:54.6610 p.m.,-0.9,0.33,0.98,1.51,1.38,0.69
2022-02-17 5:51:54.6710 p.m.,-0.47,0.77,0.53,1.61,1.03,0.73
2022-02-17 5:51:54.6820 p.m.,-0.23,1.03,0.34,1.71,0.67,0.72
2022-02-17 5:51:54.6920 p.m.,-0.31,1.06,0.19,1.77,0.35,0.72
2022-02-17 5:51:54.7020 p.m.,-0.35,1.06,-0.07,1.76,0.04,0.71
2022-02-17 5:51:54.7120 p.m.,-0.22,0.99,-0.04,1.71,-0.23,0.68
2022-02-17 5:51:54.7220 p.m.,-0.25,1.01,-0.04,1.66,-0.4,0.65
2022-02-17 5:51:54.7320 p.m.,-0.33,1.35,-0.49,1.6,-0.48,0.58
2022-02-17 5:51:54.7420 p.m.,-0.44,1.64,-0.95,1.5,-0.54,0.49
2022-02-17 5:51:54.7520 p.m.,-0.47,1.42,-1.03,1.39,-0.59,0.41
2022-02-17 5:51:54.7620 p.m.,-0.44,1.5,-0.97,1.24,-0.67,0.3
2022-02-17 5:51:54.7720 p.m.,-0.45,1.6,-0.77,1.1,-0.78,0.2
2022-02-17 5:51:54.7820 p.m.,-0.51,1.67,-0.54,0.98,-0.89,0.1
2022-02-17 5:51:54.7920 p.m.,-0.47,1.77,-0.58,0.95,-1.0,0.0
2022-02-17 5:51:54.8020 p.m.,-0.39,1.72,-0.8,0.98,-1.11,-0.12
2022-02-17 5:51:54.8120 p.m.,-0.41,1.51,-1.13,1.08,-1.21,-0.24
2022-02-17 5:51:54.8220 p.m.,-0.36,1.16,-1.41,1.21,-1.3,-0.34
2022-02-17 5:51:54.8320 p.m.,-0.25,0.82,-1.6,1.33,-1.37,-0.39
2022-02-17 5:51:54.8420 p.m.,-0.28,0.69,-1.74,1.41,-1.42,-0.4
2022-02-17 5:51:54.8520 p.m.,-0.51,0.78,-1.79,1.45,-1.41,-0.35
2022-02-17 5:51:54.8620 p.m.,-0.65,0.81,-1.84,1.46,-1.32,-0.28
2022-02-17 5:51:54.8720 p.m.,-0.66,0.37,-2.02,1.46,-1.06,-0.25
2022-02-17 5:51:54.8820 p.m.,-0.72,-0.5,-2.4,1.48,-0.44,-0.24
2022-02-17 5:51:54.8920 p.m.,-0.8,-1.52,-3.27,1.53,0.55,-0.21
2022-02-17 5:51:54.9030 p.m.,-0.91,-2.13,-5.02,1.45,1.32,-0.17
2022-02-17 5:51:54.9130 p.m.,-1.05,-2.02,-5.11,1.22,1.64,-0.19
2022-02-17 5:51:54.9230 p.m.,-1.26,-2.27,-3.32,0.89,1.66,-0.24
2022-02-17 5:51:54.9330 p.m.,-1.6,-2.89,-1.83,0.53,1.55,-0.24
2022-02-17 5:51:54.9430 p.m.,-1.83,-3.38,-1.22,0.21,1.33,-0.18
2022-02-17 5:51:54.9530 p.m.,-1.85,-3.57,-1.08,0.01,0.96,-0.07
2022-02-17 5:51:54.9630 p.m.,-1.7,-3.72,-1.2,-0.01,0.5,-0.03
2022-02-17 5:51:54.9730 p.m.,-1.63,-4.36,-1.64,0.09,0.2,-0.08
2022-02-17 5:51:54.9830 p.m.,-1.64,-5.19,-2.57,-0.03,0.43,-0.22
2022-02-17 5:51:54.9930 p.m.,-1.92,-5.51,-3.91,-0.67,0.92,-0.3
2022-02-17 5:51:55.0030 p.m.,-2.52,-5.36,-4.28,-1.49,1.14,-0.31
2022-02-17 5:51:55.0130 p.m.,-3.02,-5.75,-2.38,-2.16,1.1,-0.27
2022-02-17 5:51:55.0230 p.m.,-3.02,-6.76,-0.59,-2.6,1.0,-0.16
2022-02-17 5:51:55.0330 p.m.,-2.78,-7.22,-0.01,-2.78,0.98,-0.04
2022-02-17 5:51:55.0430 p.m.,-2.41,-5.98,-0.69,-2.92,1.35,-0.11
2022-02-17 5:51:55.0530 p.m.,-1.95,-3.24,-2.34,-3.26,2.02,-0.39
2022-02-17 5:51:55.0630 p.m.,-0.96,-1.13,-4.08,-3.68,2.3,-0.63
2022-02-17 5:51:55.0730 p.m.,0.09,0.58,-3.36,-3.98,2.04,-0.74
2022-02-17 5:51:55.0830 p.m.,0.83,2.08,-1.13,-4.06,1.34,-0.77
2022-02-17 5:51:55.0930 p.m.,1.52,2.31,0.59,-3.96,0.38,-0.7
2022-02-17 5:51:55.1030 p.m.,2.16,1.78,2.06,-3.73,-0.59,-0.5
2022-02-17 5:51:55.1130 p.m.,2.95,1.11,3.14,-3.33,-1.17,-0.33
2022-02-17 5:51:55.1240 p.m.,3.69,0.11,3.48,-3.0,-1.45,-0.31
2022-02-17 5:51:55.1340 p.m.,4.23,-1.23,3.52,-2.81,-0.98,-0.39
2022-02-17 5:51:55.1440 p.m.,4.69,-2.52,2.75,-2.74,-0.13,-0.53
2022-02-17 5:51:55.1540 p.m.,4.75,-3.27,1.59,-2.83,0.49,-0.71
2022-02-17 5:51:55.1640 p.m.,3.59,-3.72,2.4,-2.99,0.82,-0.91
2022-02-17 5:51:55.1740 p.m.,1.7,-3.52,3.79,-3.18,1.14,-1.08
2022-02-17 5:51:55.1840 p.m.,0.21,-2.79,4.7,-3.37,1.36,-1.24
2022-02-17 5:51:55.1940 p.m.,-1.24,-2.14,5.26,-3.42,1.61,-1.31
2022-02-17 5:51:55.2040 p.m.,-2.1,-1.44,5.2,-3.25,1.84,-1.24
2022-02-17 5:51:55.2140 p.m.,-2.37,-0.82,4.44,-2.89,2.17,-1.05
2022-02-17 5:51:55.2240 p.m.,-2.72,-0.21,3.71,-2.43,2.61,-0.79
2022-02-17 5:51:55.2340 p.m.,-3.25,0.02,3.16,-2.2,2.76,-0.5
2022-02-17 5:51:55.2440 p.m.,-3.26,-0.07,2.58,-2.3,2.3,-0.29
2022-02-17 5:51:55.2540 p.m.,-2.87,-0.28,3.33,-2.32,1.73,-0.15
2022-02-17 5:51:55.2640 p.m.,-2.3,-0.3,3.24,-2.09,1.34,-0.06
2022-02-17 5:51:55.2740 p.m.,-1.41,0.04,2.45,-1.71,1.1,0.05
2022-02-17 5:51:55.2840 p.m.,-0.44,0.44,2.16,-1.35,0.98,0.16
2022-02-17 5:51:55.2940 p.m.,0.33,0.59,2.62,-1.1,0.96,0.23
2022-02-17 5:51:55.3040 p.m.,0.62,0.42,3.19,-0.95,0.96,0.35
2022-02-17 5:51:55.3140 p.m.,0.77,0.38,3.81,-0.93,0.98,0.49
2022-02-17 5:51:55.3240 p.m.,0.8,0.54,4.53,-0.99,1.08,0.57
2022-02-17 5:51:55.3340 p.m.,0.23,1.14,5.23,-1.0,1.21,0.63
2022-02-17 5:51:55.3440 p.m.,-0.23,1.61,5.27,-0.91,1.25,0.66
2022-02-17 5:51:55.3540 p.m.,-0.52,2.23,4.96,-0.72,1.16,0.65
2022-02-17 5:51:55.3650 p.m.,-0.75,2.92,4.49,-0.46,1.03,0.63
2022-02-17 5:51:55.3740 p.m.,-0.76,3.59,4.17,-0.18,0.86,0.63
2022-02-17 5:51:55.3850 p.m.,-0.67,4.19,4.13,0.1,0.62,0.64
2022-02-17 5:51:55.3950 p.m.,-0.59,4.57,4.12,0.36,0.33,0.67
2022-02-17 5:51:55.4050 p.m.,-0.58,4.8,3.77,0.64,0.0,0.75
2022-02-17 5:51:55.4150 p.m.,-0.57,5.04,3.08,0.91,-0.32,0.84
2022-02-17 5:51:55.4250 p.m.,-0.61,5.06,2.39,1.16,-0.51,0.92
2022-02-17 5:51:55.4350 p.m.,-0.69,5.04,1.58,1.38,-0.64,0.98
2022-02-17 5:51:55.4450 p.m.,-0.6,4.92,0.62,1.53,-0.7,1.07
2022-02-17 5:51:55.4550 p.m.,-0.43,4.53,-0.33,1.57,-0.62,1.22
2022-02-17 5:51:55.4650 p.m.,-0.47,3.79,-1.54,1.34,-0.35,1.42
2022-02-17 5:51:55.4750 p.m.,-0.82,2.42,-3.2,0.72,0.18,1.61
2022-02-17 5:51:55.4850 p.m.,-1.11,0.27,-5.83,-0.01,1.04,1.4
2022-02-17 5:51:55.4950 p.m.,-0.82,-2.94,-9.08,-0.83,2.17,0.76
2022-02-17 5:51:55.5050 p.m.,0.29,-6.73,-11.21,-1.19,2.85,0.07
2022-02-17 5:51:55.5150 p.m.,2.74,-9.49,-12.28,-0.87,2.36,-0.53
2022-02-17 5:51:55.5250 p.m.,5.37,-10.27,-10.49,-0.52,1.15,-0.9
2022-02-17 5:51:55.5350 p.m.,6.64,-9.54,-6.47,-0.33,0.1,-0.63
2022-02-17 5:51:55.5450 p.m.,6.33,-3.91,-2.84,0.15,-0.25,-0.12
2022-02-17 5:51:55.5550 p.m.,5.33,3.87,-2.16,0.72,0.38,0.28
2022-02-17 5:51:55.5650 p.m.,4.05,8.42,-2.55,0.96,1.12,0.49
2022-02-17 5:51:55.5750 p.m.,3.21,10.7,-0.03,1.01,1.12,0.48
2022-02-17 5:51:55.5850 p.m.,3.04,9.72,3.85,1.12,0.46,0.32
2022-02-17 5:51:55.5950 p.m.,2.85,4.37,6.61,1.3,-0.58,0.08
2022-02-17 5:51:55.6050 p.m.,1.29,-2.33,7.36,1.19,-2.14,0.09
2022-02-17 5:51:55.6160 p.m.,0.04,-6.63,8.16,0.5,-3.29,-0.05
2022-02-17 5:51:55.6260 p.m.,-0.85,-9.11,8.33,-0.26,-3.09,-0.53
2022-02-17 5:51:55.6360 p.m.,-0.74,-12.42,4.38,0.1,-1.5,-0.81
2022-02-17 5:51:55.6460 p.m.,1.75,-12.96,-3.48,1.1,-0.45,-0.55
2022-02-17 5:51:55.6560 p.m.,3.88,-7.51,-6.9,1.59,-0.99,-0.04
2022-02-17 5:51:55.6660 p.m.,3.92,0.72,-0.3,1.59,-2.0,0.26
2022-02-17 5:51:55.6760 p.m.,2.24,5.39,6.21,1.46,-2.58,0.23
2022-02-17 5:51:55.6860 p.m.,0.22,5.72,6.65,1.55,-2.85,0.14
2022-02-17 5:51:55.6960 p.m.,-0.04,5.3,4.86,1.78,-2.72,0.0
2022-02-17 5:51:55.7060 p.m.,0.07,5.05,2.72,1.96,-2.49,-0.35
2022-02-17 5:51:55.7160 p.m.,-0.81,3.61,1.41,2.08,-2.68,-0.84
2022-02-17 5:51:55.7260 p.m.,-2.12,1.55,2.04,2.07,-3.29,-1.33
2022-02-17 5:51:55.7360 p.m.,-2.96,0.23,3.54,1.99,-3.96,-1.74
2022-02-17 5:51:55.7460 p.m.,-3.25,-0.61,4.48,2.03,-4.43,-2.02
2022-02-17 5:51:55.7560 p.m.,-3.18,-1.38,4.25,2.17,-4.69,-2.14
2022-02-17 5:51:55.7660 p.m.,-3.16,-2.49,3.41,2.17,-4.58,-1.83
2022-02-17 5:51:55.7760 p.m.,-2.24,-3.8,2.91,1.74,-3.71,-0.62
2022-02-17 5:51:55.7860 p.m.,0.58,-5.04,3.01,1.21,-2.58,0.3
2022-02-17 5:51:55.7960 p.m.,0.39,-4.09,3.2,1.29,-0.95,0.43
2022-02-17 5:51:55.8060 p.m.,-4.21,-2.69,0.4,1.62,0.57,0.41
2022-02-17 5:51:55.8160 p.m.,-6.73,-1.05,-3.26,1.81,1.46,0.51
2022-02-17 5:51:55.8260 p.m.,-5.94,0.17,-1.54,1.86,1.71,0.68
2022-02-17 5:51:55.8360 p.m.,-3.85,-0.03,0.46,1.83,1.62,0.73
2022-02-17 5:51:55.8460 p.m.,-2.39,-0.19,1.34,1.62,1.36,0.68
2022-02-17 5:51:55.8570 p.m.,-1.68,0.05,1.36,1.4,1.09,0.68
2022-02-17 5:51:55.8670 p.m.,-0.62,0.13,0.96,1.27,0.94,0.71
2022-02-17 5:51:55.8770 p.m.,0.3,0.38,0.19,1.33,0.81,0.7
2022-02-17 5:51:55.8870 p.m.,0.47,0.55,-0.54,1.53,0.58,0.69
2022-02-17 5:51:55.8970 p.m.,0.29,0.71,-0.83,1.72,0.21,0.68
2022-02-17 5:51:55.9070 p.m.,0.01,0.75,-0.57,1.83,-0.12,0.7
2022-02-17 5:51:55.9170 p.m.,-0.38,0.71,-0.54,1.85,-0.31,0.72
2022-02-17 5:51:55.9270 p.m.,-0.92,0.85,-0.58,1.75,-0.42,0.76
2022-02-17 5:51:55.9370 p.m.,-1.29,1.4,-0.57,1.58,-0.53,0.77
2022-02-17 5:51:55.9470 p.m.,-1.37,1.92,-0.35,1.4,-0.65,0.72
2022-02-17 5:51:55.9570 p.m.,-1.42,1.97,-0.32,1.24,-0.75,0.63
2022-02-17 5:51:55.9670 p.m.,-1.31,2.02,-0.49,1.09,-0.84,0.52
2022-02-17 5:51:55.9770 p.m.,-1.02,2.07,-0.58,0.98,-0.9,0.42
2022-02-17 5:51:55.9870 p.m.,-0.69,2.04,-0.65,0.91,-0.95,0.29
2022-02-17 5:51:55.9970 p.m.,-0.41,1.95,-0.78,0.9,-1.0,0.15
2022-02-17 5:51:56.0070 p.m.,-0.15,1.67,-0.9,0.95,-1.05,0.0
2022-02-17 5:51:56.0170 p.m.,0.06,1.35,-1.05,1.06,-1.08,-0.14
2022-02-17 5:51:56.0270 p.m.,0.21,1.19,-1.27,1.22,-1.05,-0.24
2022-02-17 5:51:56.0370 p.m.,0.37,1.15,-1.54,1.38,-0.97,-0.34
2022-02-17 5:51:56.0470 p.m.,0.48,1.09,-1.73,1.51,-0.83,-0.47
2022-02-17 5:51:56.0570 p.m.,0.23,0.63,-1.87,1.58,-0.63,-0.57
2022-02-17 5:51:56.0680 p.m.,-0.08,0.15,-1.98,1.56,-0.41,-0.6
2022-02-17 5:51:56.0780 p.m.,-0.17,-0.38,-2.02,1.48,-0.13,-0.61
2022-02-17 5:51:56.0880 p.m.,-0.31,-1.21,-2.12,1.39,0.19,-0.61
2022-02-17 5:51:56.0980 p.m.,-0.6,-2.08,-2.32,1.29,0.58,-0.57
2022-02-17 5:51:56.1080 p.m.,-0.86,-2.58,-2.62,1.25,1.25,-0.5
2022-02-17 5:51:56.1180 p.m.,-1.17,-2.36,-3.74,1.29,2.21,-0.46
2022-02-17 5:51:56.1280 p.m.,-2.08,-2.13,-6.05,1.12,2.92,-0.4
2022-02-17 5:51:56.1380 p.m.,-2.76,-2.46,-6.15,0.48,3.26,-0.31
2022-02-17 5:51:56.1480 p.m.,-2.78,-3.5,-3.95,-0.22,3.03,-0.28
2022-02-17 5:51:56.1580 p.m.,-2.71,-4.75,-1.97,-0.52,2.19,-0.15
2022-02-17 5:51:56.1680 p.m.,-2.0,-5.42,-0.64,-0.45,0.98,0.06
2022-02-17 5:51:56.1780 p.m.,-1.03,-4.53,-0.7,-0.37,-0.13,0.06
2022-02-17 5:51:56.1880 p.m.,-0.77,-4.08,-1.36,-0.75,-0.47,-0.16
2022-02-17 5:51:56.1980 p.m.,-0.62,-4.24,-2.69,-1.43,-0.26,-0.42
2022-02-17 5:51:56.2080 p.m.,-0.47,-4.82,-4.49,-2.07,-0.13,-0.6
2022-02-17 5:51:56.2180 p.m.,-1.46,-5.61,-4.23,-2.52,-0.22,-0.58
2022-02-17 5:51:56.2280 p.m.,-2.27,-5.83,-2.47,-2.8,-0.37,-0.43
2022-02-17 5:51:56.2380 p.m.,-2.37,-5.68,-1.13,-3.02,-0.23,-0.33
2022-02-17 5:51:56.2480 p.m.,-2.35,-4.85,-1.07,-3.24,0.29,-0.34
2022-02-17 5:51:56.2580 p.m.,-2.2,-3.35,-2.06,-3.49,0.92,-0.37
2022-02-17 5:51:56.2680 p.m.,-1.52,-1.22,-2.61,-3.73,1.33,-0.48
2022-02-17 5:51:56.2790 p.m.,-0.61,0.84,-2.06,-3.84,1.43,-0.66
2022-02-17 5:51:56.2880 p.m.,0.14,1.18,-0.73,-3.77,1.24,-0.75
2022-02-17 5:51:56.2980 p.m.,0.94,0.85,0.86,-3.61,0.61,-0.67
2022-02-17 5:51:56.3080 p.m.,1.9,0.98,2.88,-3.38,-0.12,-0.56
2022-02-17 5:51:56.3180 p.m.,2.67,0.51,4.13,-3.14,-0.59,-0.46
2022-02-17 5:51:56.3290 p.m.,3.17,-1.1,4.42,-2.95,-0.62,-0.39
2022-02-17 5:51:56.3390 p.m.,3.62,-2.81,3.83,-2.79,-0.31,-0.36
2022-02-17 5:51:56.3490 p.m.,3.91,-3.9,2.73,-2.66,0.02,-0.39
2022-02-17 5:51:56.3590 p.m.,3.43,-4.26,2.22,-2.57,0.16,-0.46
2022-02-17 5:51:56.3690 p.m.,2.25,-3.52,2.57,-2.55,0.17,-0.5
2022-02-17 5:51:56.3790 p.m.,1.03,-2.11,3.27,-2.6,0.15,-0.56
2022-02-17 5:51:56.3890 p.m.,-0.03,-1.51,3.78,-2.66,0.33,-0.59
2022-02-17 5:51:56.3990 p.m.,-1.05,-1.02,4.17,-2.79,1.04,-0.64
2022-02-17 5:51:56.4090 p.m.,-2.5,-0.39,4.52,-2.79,1.85,-0.54
2022-02-17 5:51:56.4190 p.m.,-3.27,-0.22,4.21,-2.65,2.11,-0.31
2022-02-17 5:51:56.4290 p.m.,-2.76,-0.09,3.71,-2.57,2.08,-0.03
2022-02-17 5:51:56.4390 p.m.,-2.7,-0.46,3.5,-2.64,1.6,0.16
2022-02-17 5:51:56.4490 p.m.,-2.88,-1.04,3.84,-2.62,1.2,0.28
2022-02-17 5:51:56.4590 p.m.,-2.81,-1.17,3.45,-2.39,1.09,0.37
2022-02-17 5:51:56.4690 p.m.,-2.26,-0.59,2.7,-1.99,1.15,0.44
2022-02-17 5:51:56.4790 p.m.,-1.32,-0.13,2.09,-1.51,1.23,0.59
2022-02-17 5:51:56.4890 p.m.,-0.39,0.4,2.79,-1.22,1.42,0.66
2022-02-17 5:51:56.4990 p.m.,0.42,0.67,3.43,-1.13,1.78,0.64
2022-02-17 5:51:56.5090 p.m.,0.33,0.66,4.05,-1.11,2.09,0.68
2022-02-17 5:51:56.5200 p.m.,0.12,1.21,4.79,-1.14,2.25,0.73
2022-02-17 5:51:56.5290 p.m.,-0.12,1.84,5.5,-1.08,2.24,0.75
2022-02-17 5:51:56.5400 p.m.,-0.44,2.15,5.72,-0.9,2.09,0.76
2022-02-17 5:51:56.5500 p.m.,-0.68,2.51,5.47,-0.6,1.79,0.75
2022-02-17 5:51:56.5600 p.m.,-0.83,2.93,5.04,-0.27,1.38,0.73
2022-02-17 5:51:56.5700 p.m.,-0.83,3.47,4.64,0.07,0.98,0.72
2022-02-17 5:51:56.5800 p.m.,-0.72,4.14,4.28,0.4,0.62,0.75
2022-02-17 5:51:56.5900 p.m.,-0.48,4.78,3.96,0.71,0.3,0.8
2022-02-17 5:51:56.6000 p.m.,-0.33,5.13,3.73,0.97,-0.03,0.85
2022-02-17 5:51:56.6100 p.m.,-0.33,5.28,3.5,1.22,-0.37,0.87
2022-02-17 5:51:56.6200 p.m.,-0.27,5.27,3.17,1.48,-0.68,0.85
2022-02-17 5:51:56.6310 p.m.,-0.01,5.27,2.76,1.75,-0.94,0.82
2022-02-17 5:51:56.6410 p.m.,0.23,5.33,2.32,2.06,-1.14,0.79
2022-02-17 5:51:56.6500 p.m.,0.34,5.27,1.63,2.41,-1.27,0.78
2022-02-17 5:51:56.6600 p.m.,0.24,4.78,0.86,2.64,-1.37,0.77
2022-02-17 5:51:56.6700 p.m.,-0.16,3.81,0.29,2.02,-1.32,0.67
2022-02-17 5:51:56.6800 p.m.,-0.28,1.49,-1.8,-0.5,-0.87,0.6
2022-02-17 5:51:56.6900 p.m.,0.17,-3.84,-6.27,-2.43,1.1,0.46
2022-02-17 5:51:56.7000 p.m.,0.04,-11.26,-14.81,-2.07,2.6,0.29
2022-02-17 5:51:56.7110 p.m.,0.26,-14.24,-20.21,-1.4,2.1,-0.09
2022-02-17 5:51:56.7210 p.m.,2.19,-14.17,-14.98,-0.65,0.92,-0.07
2022-02-17 5:51:56.7300 p.m.,4.05,-10.35,-7.49,-0.03,0.82,0.35
2022-02-17 5:51:56.7410 p.m.,4.57,-1.78,-4.52,0.36,1.37,0.65
2022-02-17 5:51:56.7510 p.m.,2.4,4.61,-3.04,0.57,1.96,0.85
2022-02-17 5:51:56.7600 p.m.,0.72,9.16,-0.48,0.73,2.33,1.02
2022-02-17 5:51:56.7700 p.m.,0.76,11.65,1.52,1.19,1.86,1.09
2022-02-17 5:51:56.7800 p.m.,0.56,9.12,2.85,1.48,0.46,1.1
2022-02-17 5:51:56.7910 p.m.,-0.74,3.17,5.14,1.47,-1.51,0.81
2022-02-17 5:51:56.8010 p.m.,-2.54,-4.05,6.85,0.93,-3.69,0.06
2022-02-17 5:51:56.8110 p.m.,-2.58,-10.29,8.26,0.02,-4.74,-0.97
2022-02-17 5:51:56.8220 p.m.,-0.86,-15.38,7.61,-0.25,-3.32,-1.35
2022-02-17 5:51:56.8310 p.m.,3.08,-14.78,1.4,0.3,-0.8,-0.88
2022-02-17 5:51:56.8410 p.m.,8.83,-8.31,-6.04,0.85,0.42,-0.13
2022-02-17 5:51:56.8510 p.m.,10.98,-1.07,-5.64,1.11,-0.17,0.33
2022-02-17 5:51:56.8610 p.m.,7.46,4.99,2.61,1.27,-0.91,0.49
2022-02-17 5:51:56.8710 p.m.,4.17,6.38,6.63,1.51,-1.27,0.43
2022-02-17 5:51:56.8810 p.m.,1.96,6.8,5.48,1.79,-1.45,0.22
2022-02-17 5:51:56.8910 p.m.,0.6,6.66,4.1,1.97,-1.82,-0.19
2022-02-17 5:51:56.9010 p.m.,-0.69,5.29,3.95,2.01,-2.6,-0.8
2022-02-17 5:51:56.9110 p.m.,-2.12,2.41,5.2,1.97,-3.59,-1.28
2022-02-17 5:51:56.9210 p.m.,-2.74,0.16,6.3,2.08,-4.41,-1.54
2022-02-17 5:51:56.9310 p.m.,-2.68,-0.61,6.19,2.3,-4.87,-1.79
2022-02-17 5:51:56.9410 p.m.,-3.26,-1.88,4.59,2.42,-4.98,-1.99
2022-02-17 5:51:56.9510 p.m.,-3.43,-3.47,3.27,2.21,-4.66,-1.7
2022-02-17 5:51:56.9610 p.m.,-1.86,-4.35,2.76,1.42,-3.48,-0.56
2022-02-17 5:51:56.9710 p.m.,0.99,-4.68,3.4,0.73,-2.21,0.2
2022-02-17 5:51:56.9810 p.m.,0.49,-2.83,3.38,0.57,-0.95,0.23
2022-02-17 5:51:56.9920 p.m.,-3.75,-1.33,0.73,0.84,0.45,0.06
2022-02-17 5:51:57.0010 p.m.,-5.5,-0.4,-2.72,1.11,1.36,0.13
2022-02-17 5:51:57.0110 p.m.,-4.42,0.53,-2.54,1.29,1.67,0.32
2022-02-17 5:51:57.0220 p.m.,-1.92,0.36,0.05,1.45,1.54,0.43
2022-02-17 5:51:57.0320 p.m.,-0.89,-0.3,1.4,1.54,1.15,0.53
2022-02-17 5:51:57.0420 p.m.,-0.3,-0.55,2.12,1.52,0.68,0.61
2022-02-17 5:51:57.0520 p.m.,0.15,-0.17,2.49,1.44,0.25,0.61
2022-02-17 5:51:57.0620 p.m.,0.1,0.29,2.31,1.36,-0.07,0.56
2022-02-17 5:51:57.0720 p.m.,0.08,0.88,1.57,1.32,-0.3,0.49
2022-02-17 5:51:57.0820 p.m.,0.12,1.38,0.62,1.33,-0.46,0.41
2022-02-17 5:51:57.0920 p.m.,-0.28,1.3,-0.03,1.36,-0.48,0.36
2022-02-17 5:51:57.1020 p.m.,-0.67,1.17,-0.4,1.33,-0.48,0.32
2022-02-17 5:51:57.1130 p.m.,-0.55,0.61,-0.43,1.25,-0.48,0.29
2022-02-17 5:51:57.1220 p.m.,-0.61,0.47,-0.12,1.17,-0.45,0.27
2022-02-17 5:51:57.1320 p.m.,-0.74,0.54,-0.16,1.13,-0.37,0.29
2022-02-17 5:51:57.1420 p.m.,-0.66,0.71,-0.55,1.11,-0.3,0.3
2022-02-17 5:51:57.1520 p.m.,-0.48,1.02,-0.92,1.1,-0.31,0.27
2022-02-17 5:51:57.1620 p.m.,-0.46,1.19,-0.91,1.08,-0.39,0.22
2022-02-17 5:51:57.1720 p.m.,-0.41,1.37,-0.63,1.05,-0.53,0.13
2022-02-17 5:51:57.1820 p.m.,-0.32,1.38,-0.39,1.06,-0.7,0.02
2022-02-17 5:51:57.1920 p.m.,-0.32,1.25,-0.32,1.11,-0.84,-0.08
2022-02-17 5:51:57.2020 p.m.,-0.24,1.04,-0.44,1.19,-0.95,-0.16
2022-02-17 5:51:57.2120 p.m.,-0.14,0.83,-0.67,1.27,-1.04,-0.23
2022-02-17 5:51:57.2220 p.m.,-0.11,0.7,-0.86,1.33,-1.11,-0.29
2022-02-17 5:51:57.2330 p.m.,-0.23,0.71,-0.95,1.35,-1.16,-0.3
2022-02-17 5:51:57.2420 p.m.,-0.33,0.97,-0.96,1.33,-1.15,-0.28
2022-02-17 5:51:57.2530 p.m.,-0.39,1.02,-1.08,1.29,-1.07,-0.23
2022-02-17 5:51:57.2630 p.m.,-0.42,0.49,-1.27,1.26,-0.91,-0.17
2022-02-17 5:51:57.2730 p.m.,-0.22,-0.33,-1.53,1.28,-0.64,-0.12
2022-02-17 5:51:57.2830 p.m.,0.05,-0.86,-1.88,1.29,-0.37,-0.07
2022-02-17 5:51:57.2930 p.m.,0.16,-1.06,-2.25,1.28,-0.1,-0.06
2022-02-17 5:51:57.3030 p.m.,-0.06,-0.93,-2.44,1.23,0.28,-0.12
2022-02-17 5:51:57.3130 p.m.,-0.62,-0.97,-2.94,1.11,0.77,-0.2
2022-02-17 5:51:57.3230 p.m.,-1.44,-1.28,-3.43,0.73,1.27,-0.2
2022-02-17 5:51:57.3330 p.m.,-2.06,-1.37,-3.39,0.05,1.55,-0.07
2022-02-17 5:51:57.3430 p.m.,-2.26,-1.74,-2.42,-0.5,1.41,0.06
2022-02-17 5:51:57.3530 p.m.,-2.12,-2.63,-0.77,-0.69,0.96,0.25
2022-02-17 5:51:57.3630 p.m.,-1.16,-3.19,-0.05,-0.55,0.35,0.42
2022-02-17 5:51:57.3730 p.m.,-0.33,-2.78,-0.8,-0.23,-0.3,0.47
2022-02-17 5:51:57.3830 p.m.,0.01,-2.25,-1.67,0.08,-0.95,0.41
2022-02-17 5:51:57.3930 p.m.,0.43,-2.32,-1.79,0.26,-1.54,0.24
2022-02-17 5:51:57.4030 p.m.,0.8,-2.97,-1.28,0.13,-1.95,-0.04
2022-02-17 5:51:57.4130 p.m.,0.82,-4.04,-0.63,-0.68,-1.85,-0.26
2022-02-17 5:51:57.4230 p.m.,0.77,-4.74,-1.11,-1.58,-1.59,-0.21
2022-02-17 5:51:57.4330 p.m.,0.57,-4.62,-1.71,-2.09,-1.39,-0.16
2022-02-17 5:51:57.4430 p.m.,-0.23,-4.38,-0.98,-2.18,-0.95,-0.13
2022-02-17 5:51:57.4530 p.m.,-1.35,-4.57,-0.96,-2.26,-0.09,-0.13
2022-02-17 5:51:57.4630 p.m.,-1.81,-3.77,-2.57,-2.59,0.89,-0.25
2022-02-17 5:51:57.4740 p.m.,-1.55,-2.31,-4.06,-3.12,1.55,-0.46
2022-02-17 5:51:57.4840 p.m.,-0.33,-0.79,-3.55,-3.62,1.75,-0.6
2022-02-17 5:51:57.4940 p.m.,1.21,0.36,-2.02,-3.94,1.42,-0.66
2022-02-17 5:51:57.5040 p.m.,2.31,1.08,-0.34,-4.07,0.64,-0.69
2022-02-17 5:51:57.5140 p.m.,3.15,1.54,1.31,-4.03,-0.31,-0.7
2022-02-17 5:51:57.5240 p.m.,4.13,1.75,2.65,-3.8,-1.15,-0.72
2022-02-17 5:51:57.5340 p.m.,5.05,1.36,3.27,-3.4,-1.87,-0.73
2022-02-17 5:51:57.5440 p.m.,5.87,0.49,3.61,-2.96,-2.46,-0.68
2022-02-17 5:51:57.5540 p.m.,6.56,-0.22,3.98,-2.62,-2.95,-0.66
2022-02-17 5:51:57.5640 p.m.,7.08,-1.17,4.37,-2.45,-3.06,-0.73
2022-02-17 5:51:57.5740 p.m.,7.2,-2.8,4.39,-2.43,-2.63,-0.95
2022-02-17 5:51:57.5840 p.m.,5.87,-4.03,4.03,-2.61,-1.84,-1.24
2022-02-17 5:51:57.5940 p.m.,3.41,-3.77,4.62,-2.71,-0.81,-1.3
2022-02-17 5:51:57.6040 p.m.,1.47,-2.36,5.26,-2.62,0.26,-1.29
2022-02-17 5:51:57.6140 p.m.,0.07,-1.94,4.86,-2.42,1.07,-1.27
2022-02-17 5:51:57.6240 p.m.,-0.99,-1.85,4.88,-2.24,1.27,-1.23
2022-02-17 5:51:57.6340 p.m.,-1.51,-1.05,4.6,-1.95,0.89,-1.1
2022-02-17 5:51:57.6450 p.m.,-1.35,-0.26,3.97,-1.56,0.1,-0.91
2022-02-17 5:51:57.6540 p.m.,-1.11,-0.03,2.81,-1.12,-0.74,-0.74
2022-02-17 5:51:57.6640 p.m.,-0.9,0.34,2.36,-0.78,-1.19,-0.61
2022-02-17 5:51:57.6740 p.m.,-0.89,0.61,1.9,-0.53,-1.29,-0.53
2022-02-17 5:51:57.6840 p.m.,-0.92,0.93,1.97,-0.35,-1.25,-0.47
2022-02-17 5:51:57.6940 p.m.,-0.89,1.35,2.66,-0.24,-1.11,-0.41
2022-02-17 5:51:57.7050 p.m.,-0.79,1.63,3.42,-0.16,-0.91,-0.34
2022-02-17 5:51:57.7150 p.m.,-0.61,1.88,4.18,-0.1,-0.58,-0.29
2022-02-17 5:51:57.7250 p.m.,-0.54,2.27,4.71,-0.06,-0.29,-0.23
2022-02-17 5:51:57.7350 p.m.,-0.26,2.43,5.14,0.02,-0.22,-0.15
2022-02-17 5:51:57.7450 p.m.,0.55,2.75,5.21,0.17,-0.3,-0.1
2022-02-17 5:51:57.7550 p.m.,1.13,2.88,4.9,0.36,-0.45,-0.05
2022-02-17 5:51:57.7650 p.m.,1.34,3.01,4.5,0.58,-0.61,-0.01
2022-02-17 5:51:57.7750 p.m.,1.32,3.28,4.05,0.81,-0.74,0.03
2022-02-17 5:51:57.7850 p.m.,1.03,3.38,3.67,1.05,-0.85,0.07
2022-02-17 5:51:57.7950 p.m.,0.56,3.31,3.27,1.28,-1.0,0.16
2022-02-17 5:51:57.8050 p.m.,0.13,3.14,2.91,1.46,-1.17,0.3
2022-02-17 5:51:57.8150 p.m.,-0.15,2.96,2.67,1.54,-1.35,0.47
2022-02-17 5:51:57.8250 p.m.,-0.38,2.61,2.66,1.52,-1.56,0.61
2022-02-17 5:51:57.8350 p.m.,-0.69,2.05,2.77,1.41,-1.75,0.7
2022-02-17 5:51:57.8450 p.m.,-1.01,1.66,2.67,1.26,-1.93,0.76
2022-02-17 5:51:57.8550 p.m.,-1.31,1.39,2.31,1.13,-2.14,0.8
2022-02-17 5:51:57.8650 p.m.,-1.53,1.06,1.66,1.11,-2.38,0.83
2022-02-17 5:51:57.8750 p.m.,-1.38,0.86,0.36,1.21,-2.64,0.83
2022-02-17 5:51:57.8850 p.m.,-0.96,0.65,-1.47,1.43,-2.83,0.87
2022-02-17 5:51:57.8950 p.m.,-0.66,0.52,-3.69,1.71,-2.96,0.97
2022-02-17 5:51:57.9060 p.m.,-0.47,0.7,-6.04,1.91,-2.98,1.12
2022-02-17 5:51:57.9150 p.m.,-0.74,0.65,-7.98,1.94,-2.79,1.2
2022-02-17 5:51:57.9250 p.m.,-1.51,-0.09,-9.55,1.44,-2.26,1.04
2022-02-17 5:51:57.9350 p.m.,-2.12,-1.77,-10.89,0.51,-1.3,0.6
2022-02-17 5:51:57.9460 p.m.,-2.49,-4.71,-12.61,0.15,-0.45,-0.01
2022-02-17 5:51:57.9560 p.m.,-1.36,-6.56,-12.17,0.29,-0.35,-0.42
2022-02-17 5:51:57.9660 p.m.,2.13,-4.35,-7.15,0.33,-1.0,-0.49
2022-02-17 5:51:57.9760 p.m.,5.15,-1.62,-1.84,0.24,-1.53,-0.35
2022-02-17 5:51:57.9860 p.m.,6.81,0.48,1.54,0.2,-1.07,-0.24
2022-02-17 5:51:57.9960 p.m.,6.32,2.8,0.83,0.23,0.05,-0.29
2022-02-17 5:51:58.0060 p.m.,4.61,4.43,-0.63,0.46,0.91,-0.43
2022-02-17 5:51:58.0160 p.m.,3.47,4.22,-0.27,0.94,1.04,-0.6
2022-02-17 5:51:58.0260 p.m.,3.68,1.58,1.33,1.43,0.48,-0.8
2022-02-17 5:51:58.0360 p.m.,4.25,-1.65,3.11,1.66,-0.74,-1.0
2022-02-17 5:51:58.0460 p.m.,4.67,-4.16,5.24,0.97,-2.86,-0.82
2022-02-17 5:51:58.0560 p.m.,5.23,-6.17,7.31,-0.41,-5.0,-0.41
2022-02-17 5:51:58.0660 p.m.,5.41,-8.53,7.55,-0.59,-5.22,-0.34
2022-02-17 5:51:58.0760 p.m.,3.63,-9.09,1.06,0.29,-4.02,-0.31
2022-02-17 5:51:58.0860 p.m.,1.87,-4.25,-5.58,1.44,-2.39,-0.27
2022-02-17 5:51:58.0960 p.m.,0.85,1.21,-7.89,2.29,-1.14,-0.19
2022-02-17 5:51:58.1060 p.m.,0.82,3.96,-7.24,2.5,-0.99,-0.08
2022-02-17 5:51:58.1160 p.m.,1.02,4.64,-2.14,2.12,-1.71,0.03
2022-02-17 5:51:58.1260 p.m.,1.39,4.54,3.97,1.54,-2.64,0.03
2022-02-17 5:51:58.1360 p.m.,1.5,3.72,7.18,1.0,-3.26,-0.11
2022-02-17 5:51:58.1460 p.m.,0.81,2.79,7.09,0.65,-3.44,-0.31
2022-02-17 5:51:58.1570 p.m.,0.36,1.88,5.27,0.54,-3.46,-0.51
2022-02-17 5:51:58.1660 p.m.,0.57,0.72,3.63,0.63,-3.43,-0.69
2022-02-17 5:51:58.1770 p.m.,0.74,-0.44,2.7,0.83,-3.47,-0.79
2022-02-17 5:51:58.1870 p.m.,1.15,-1.0,2.22,1.08,-3.5,-0.76
2022-02-17 5:51:58.1970 p.m.,1.39,-1.18,2.04,1.25,-3.36,-0.48
2022-02-17 5:51:58.2070 p.m.,1.67,-1.28,1.85,1.33,-3.11,-0.07
2022-02-17 5:51:58.2170 p.m.,1.86,-1.36,1.95,1.38,-2.87,0.16
2022-02-17 5:51:58.2270 p.m.,0.7,-1.48,1.94,1.45,-2.68,0.21
2022-02-17 5:51:58.2370 p.m.,-0.49,-1.33,1.7,1.48,-2.48,0.24
2022-02-17 5:51:58.2470 p.m.,-0.82,-1.0,1.45,1.52,-2.31,0.31
2022-02-17 5:51:58.2570 p.m.,-0.67,-0.91,1.34,1.58,-2.13,0.37
2022-02-17 5:51:58.2670 p.m.,-0.49,-0.5,1.06,1.61,-1.97,0.4
2022-02-17 5:51:58.2770 p.m.,-0.16,-0.28,0.83,1.61,-1.85,0.4
2022-02-17 5:51:58.2870 p.m.,-0.07,-0.33,0.89,1.57,-1.78,0.42
2022-02-17 5:51:58.2970 p.m.,0.02,0.03,1.04,1.51,-1.73,0.41
2022-02-17 5:51:58.3070 p.m.,-0.24,0.4,1.04,1.44,-1.68,0.4
2022-02-17 5:51:58.3170 p.m.,-0.66,0.62,0.97,1.39,-1.56,0.4
2022-02-17 5:51:58.3270 p.m.,-0.69,0.84,0.7,1.36,-1.37,0.32
2022-02-17 5:51:58.3370 p.m.,-0.57,1.04,0.25,1.27,-1.16,0.2
2022-02-17 5:51:58.3470 p.m.,-0.69,0.73,0.08,1.1,-0.95,0.14
2022-02-17 5:51:58.3570 p.m.,-0.41,0.15,0.03,0.92,-0.74,0.15
2022-02-17 5:51:58.3680 p.m.,0.03,-0.29,-0.15,0.84,-0.51,0.17
2022-02-17 5:51:58.3770 p.m.,0.1,-0.47,-0.68,0.96,-0.16,0.14
2022-02-17 5:51:58.3870 p.m.,-0.26,-0.19,-1.99,1.16,0.18,0.11
2022-02-17 5:51:58.3980 p.m.,-0.78,0.21,-3.39,1.26,0.32,0.11
2022-02-17 5:51:58.4100 p.m.,-0.79,0.26,-2.94,1.24,0.31,0.12
2022-02-17 5:51:58.4170 p.m.,-0.8,0.25,-2.05,1.13,0.2,0.09
2022-02-17 5:51:58.4280 p.m.,-1.14,0.22,-1.5,0.96,0.03,0.06
2022-02-17 5:51:58.4380 p.m.,-1.44,0.31,-1.08,0.78,-0.17,0.05
2022-02-17 5:51:58.4470 p.m.,-1.44,0.56,-0.88,0.67,-0.4,0.06
2022-02-17 5:51:58.4580 p.m.,-1.52,0.88,-0.97,0.64,-0.63,0.1
2022-02-17 5:51:58.4680 p.m.,-1.63,1.26,-1.24,0.66,-0.88,0.14
2022-02-17 5:51:58.4780 p.m.,-1.69,1.38,-1.49,0.74,-1.1,0.14
2022-02-17 5:51:58.4880 p.m.,-1.78,1.2,-1.77,0.84,-1.3,0.09
2022-02-17 5:51:58.4980 p.m.,-1.8,0.93,-2.06,0.96,-1.47,0.04
2022-02-17 5:51:58.5080 p.m.,-1.57,0.83,-2.24,1.05,-1.61,0.05
2022-02-17 5:51:58.5180 p.m.,-1.1,0.89,-2.3,1.1,-1.71,0.07
2022-02-17 5:51:58.5280 p.m.,-0.75,0.72,-2.28,1.11,-1.72,0.12
2022-02-17 5:51:58.5380 p.m.,-0.46,0.43,-2.36,1.11,-1.64,0.2
2022-02-17 5:51:58.5480 p.m.,-0.02,-0.03,-2.56,1.15,-1.48,0.29
2022-02-17 5:51:58.5580 p.m.,0.62,-0.94,-2.86,1.22,-1.28,0.34
2022-02-17 5:51:58.5680 p.m.,1.11,-1.99,-3.16,1.3,-1.07,0.35
2022-02-17 5:51:58.5780 p.m.,1.37,-2.71,-3.34,1.37,-0.86,0.39
2022-02-17 5:51:58.5880 p.m.,1.76,-2.85,-3.46,1.41,-0.72,0.41
2022-02-17 5:51:58.5980 p.m.,1.99,-2.68,-3.46,1.38,-0.73,0.34
2022-02-17 5:51:58.6080 p.m.,1.39,-2.7,-3.23,1.29,-0.86,0.28
2022-02-17 5:51:58.6190 p.m.,0.59,-2.85,-3.02,1.12,-1.0,0.32
2022-02-17 5:51:58.6290 p.m.,0.37,-2.86,-3.06,0.42,-0.27,0.3
2022-02-17 5:51:58.6390 p.m.,0.33,-2.88,-4.29,-0.61,0.46,0.06
2022-02-17 5:51:58.6490 p.m.,0.24,-2.97,-6.58,-1.01,0.05,-0.15
2022-02-17 5:51:58.6590 p.m.,-0.31,-2.89,-3.63,-1.15,-0.7,-0.32
2022-02-17 5:51:58.6690 p.m.,-0.78,-3.16,-1.59,-1.31,-1.11,-0.47
2022-02-17 5:51:58.6790 p.m.,-1.06,-3.8,-1.48,-1.61,-0.88,-0.56
2022-02-17 5:51:58.6890 p.m.,-1.09,-4.25,-2.55,-2.13,-0.11,-0.57
2022-02-17 5:51:58.6990 p.m.,-1.22,-5.15,-4.03,-2.73,0.7,-0.54
2022-02-17 5:51:58.7090 p.m.,-1.72,-6.01,-4.42,-3.16,1.24,-0.5
2022-02-17 5:51:58.7190 p.m.,-2.11,-5.74,-3.68,-3.35,1.56,-0.51
2022-02-17 5:51:58.7290 p.m.,-2.23,-4.21,-3.04,-3.72,1.86,-0.65
2022-02-17 5:51:58.7390 p.m.,-1.68,-2.34,-2.91,-4.17,1.95,-0.82
2022-02-17 5:51:58.7490 p.m.,-0.48,-0.62,-2.39,-4.48,1.52,-0.99
2022-02-17 5:51:58.7590 p.m.,0.23,0.72,-0.8,-4.59,0.71,-1.11
2022-02-17 5:51:58.7690 p.m.,0.47,0.96,1.2,-4.41,-0.08,-1.13
2022-02-17 5:51:58.7790 p.m.,1.22,0.57,2.36,-4.12,-0.9,-1.04
2022-02-17 5:51:58.7890 p.m.,2.47,-0.21,3.51,-3.8,-1.57,-0.87
2022-02-17 5:51:58.7990 p.m.,3.93,-1.1,4.62,-3.45,-1.74,-0.69
2022-02-17 5:51:58.8090 p.m.,5.71,-2.36,4.41,-3.13,-1.56,-0.61
2022-02-17 5:51:58.8190 p.m.,7.1,-4.16,3.7,-2.9,-1.27,-0.73
2022-02-17 5:51:58.8290 p.m.,7.29,-5.51,3.37,-2.77,-1.06,-1.0
2022-02-17 5:51:58.8390 p.m.,5.8,-5.31,3.7,-2.79,-0.86,-1.1
2022-02-17 5:51:58.8490 p.m.,3.89,-3.55,4.69,-2.84,-0.42,-1.25
2022-02-17 5:51:58.8600 p.m.,1.71,-2.52,4.87,-2.94,0.08,-1.43
2022-02-17 5:51:58.8700 p.m.,-0.51,-2.09,5.2,-2.95,0.54,-1.56
2022-02-17 5:51:58.8800 p.m.,-1.72,-1.08,5.13,-2.82,1.0,-1.62
2022-02-17 5:51:58.8900 p.m.,-2.66,-0.08,4.37,-2.47,1.4,-1.38
2022-02-17 5:51:58.9000 p.m.,-3.3,0.1,3.33,-2.11,1.6,-1.0
2022-02-17 5:51:58.9100 p.m.,-3.22,0.09,3.09,-1.99,1.19,-0.65
2022-02-17 5:51:58.9200 p.m.,-3.45,-0.67,3.03,-1.99,0.38,-0.42
2022-02-17 5:51:58.9300 p.m.,-3.25,-0.79,3.51,-1.91,-0.33,-0.28
2022-02-17 5:51:58.9400 p.m.,-2.51,-0.34,3.24,-1.68,-0.75,-0.23
2022-02-17 5:51:58.9500 p.m.,-1.53,0.27,2.86,-1.32,-0.91,-0.17
2022-02-17 5:51:58.9600 p.m.,-0.53,1.01,2.82,-0.92,-0.82,-0.02
2022-02-17 5:51:58.9700 p.m.,0.13,1.44,3.02,-0.61,-0.53,0.12
2022-02-17 5:51:58.9800 p.m.,0.26,1.89,3.54,-0.42,-0.14,0.26
2022-02-17 5:51:58.9900 p.m.,0.16,2.69,4.14,-0.3,0.26,0.39
2022-02-17 5:51:59.0000 p.m.,0.54,2.89,4.78,-0.19,0.59,0.47
2022-02-17 5:51:59.0100 p.m.,0.46,2.7,5.09,-0.07,0.83,0.5
2022-02-17 5:51:59.0200 p.m.,0.25,2.64,4.99,0.08,0.94,0.51
2022-02-17 5:51:59.0300 p.m.,-0.04,2.68,4.99,0.25,0.92,0.53
2022-02-17 5:51:59.0400 p.m.,-0.43,2.84,4.95,0.42,0.77,0.56
2022-02-17 5:51:59.0500 p.m.,-0.73,3.09,4.74,0.61,0.5,0.63
2022-02-17 5:51:59.0600 p.m.,-1.02,3.39,4.4,0.74,0.16,0.7
2022-02-17 5:51:59.0700 p.m.,-1.31,3.56,4.03,0.87,-0.21,0.72
2022-02-17 5:51:59.0810 p.m.,-1.5,3.65,3.44,1.03,-0.58,0.72
2022-02-17 5:51:59.0910 p.m.,-1.38,3.89,2.79,1.22,-0.98,0.74
2022-02-17 5:51:59.1010 p.m.,-1.01,4.02,2.21,1.45,-1.36,0.79
2022-02-17 5:51:59.1110 p.m.,-0.35,3.99,1.53,1.69,-1.66,0.82
2022-02-17 5:51:59.1210 p.m.,0.13,3.79,0.7,1.9,-1.79,0.88
2022-02-17 5:51:59.1310 p.m.,0.21,3.55,-0.33,2.06,-1.83,0.89
2022-02-17 5:51:59.1410 p.m.,-0.27,3.1,-1.22,2.08,-1.79,0.87
2022-02-17 5:51:59.1510 p.m.,-0.83,2.21,-2.03,1.76,-1.68,0.84
2022-02-17 5:51:59.1610 p.m.,-0.97,0.54,-3.75,1.04,-1.38,0.85
2022-02-17 5:51:59.1710 p.m.,-0.73,-2.18,-6.35,0.11,-0.54,0.83
2022-02-17 5:51:59.1810 p.m.,-0.69,-5.87,-9.05,-0.93,0.88,0.64
2022-02-17 5:51:59.1910 p.m.,-0.53,-9.36,-11.44,-1.48,2.1,0.39
2022-02-17 5:51:59.2010 p.m.,0.71,-11.04,-12.59,-1.28,2.13,0.0
2022-02-17 5:51:59.2110 p.m.,2.18,-9.92,-10.09,-0.85,1.29,-0.23
2022-02-17 5:51:59.2210 p.m.,3.6,-7.05,-6.15,-0.51,0.4,-0.14
2022-02-17 5:51:59.2310 p.m.,4.38,-2.2,-3.41,-0.17,0.17,0.12
2022-02-17 5:51:59.2410 p.m.,3.95,3.04,-1.9,0.19,0.69,0.31
2022-02-17 5:51:59.2510 p.m.,2.69,6.72,-1.53,0.5,1.38,0.36
2022-02-17 5:51:59.2610 p.m.,1.66,8.75,-0.51,0.74,1.91,0.37
2022-02-17 5:51:59.2710 p.m.,1.32,8.47,0.76,0.9,2.06,0.42
2022-02-17 5:51:59.2810 p.m.,0.89,5.6,2.2,0.86,1.5,0.46
2022-02-17 5:51:59.2910 p.m.,-0.03,1.15,4.43,0.48,0.33,0.45
2022-02-17 5:51:59.3010 p.m.,-1.23,-3.66,6.31,-0.05,-0.68,0.4
2022-02-17 5:51:59.3110 p.m.,-2.07,-8.15,5.23,-0.12,-1.11,0.31
2022-02-17 5:51:59.3220 p.m.,-1.63,-9.99,1.78,0.13,-0.94,0.29
2022-02-17 5:51:59.3310 p.m.,-0.23,-8.31,-2.16,0.56,-0.45,0.36
2022-02-17 5:51:59.3420 p.m.,1.59,-4.82,-5.55,1.04,-0.01,0.38
2022-02-17 5:51:59.3520 p.m.,3.09,-1.45,-6.41,1.4,-0.08,0.42
2022-02-17 5:51:59.3620 p.m.,4.55,2.22,-3.39,1.43,-0.8,0.42
2022-02-17 5:51:59.3720 p.m.,5.62,5.0,2.5,1.21,-1.88,0.36
2022-02-17 5:51:59.3820 p.m.,5.4,5.7,7.54,1.06,-2.63,0.24
2022-02-17 5:51:59.3920 p.m.,4.23,4.65,8.83,1.12,-2.77,0.08
2022-02-17 5:51:59.4020 p.m.,3.7,4.01,7.1,1.44,-2.37,-0.05
2022-02-17 5:51:59.4120 p.m.,3.77,2.9,4.16,1.95,-1.8,-0.34
2022-02-17 5:51:59.4220 p.m.,2.98,1.4,1.34,2.17,-1.72,-0.69
2022-02-17 5:51:59.4340 p.m.,1.04,-0.03,0.84,1.84,-2.23,-0.94
2022-02-17 5:51:59.4420 p.m.,-0.69,-0.27,2.53,1.4,-3.05,-1.11
2022-02-17 5:51:59.4520 p.m.,-2.04,-0.42,3.22,1.19,-3.73,-1.25
2022-02-17 5:51:59.4620 p.m.,-2.49,-0.72,2.84,1.37,-4.0,-1.43
2022-02-17 5:51:59.4720 p.m.,-2.6,-1.13,1.56,1.77,-3.85,-1.56
2022-02-17 5:51:59.4820 p.m.,-2.19,-1.65,-0.11,2.17,-3.53,-1.47
2022-02-17 5:51:59.4920 p.m.,-1.25,-1.61,-0.84,2.42,-3.19,-1.13
2022-02-17 5:51:59.5020 p.m.,-0.18,-1.28,-0.37,2.3,-2.65,-0.43
2022-02-17 5:51:59.5120 p.m.,0.7,-1.26,0.59,1.88,-1.96,0.24
2022-02-17 5:51:59.5220 p.m.,0.67,-1.45,1.86,1.5,-1.4,0.43
2022-02-17 5:51:59.5320 p.m.,-1.61,-1.18,2.48,1.26,-0.97,0.32
2022-02-17 5:51:59.5420 p.m.,-3.44,-0.84,2.28,1.1,-0.51,0.2
2022-02-17 5:51:59.5520 p.m.,-3.75,-0.57,1.75,1.06,0.14,0.2
2022-02-17 5:51:59.5630 p.m.,-3.22,-0.37,0.79,1.15,0.81,0.28
2022-02-17 5:51:59.5730 p.m.,-2.46,-0.28,-0.41,1.26,1.21,0.32
2022-02-17 5:51:59.5830 p.m.,-1.94,-0.52,-0.66,1.32,1.26,0.34
2022-02-17 5:51:59.5930 p.m.,-1.51,-0.48,0.18,1.33,1.07,0.38
2022-02-17 5:51:59.6030 p.m.,-1.12,0.08,0.86,1.34,0.76,0.47
2022-02-17 5:51:59.6130 p.m.,-0.84,0.75,1.22,1.33,0.44,0.56
2022-02-17 5:51:59.6230 p.m.,-0.47,1.44,1.07,1.29,0.18,0.63
2022-02-17 5:51:59.6330 p.m.,-0.11,1.65,0.66,1.23,-0.08,0.66
2022-02-17 5:51:59.6430 p.m.,0.08,1.24,0.43,1.2,-0.31,0.67
2022-02-17 5:51:59.6530 p.m.,0.21,0.51,0.35,1.18,-0.54,0.65
2022-02-17 5:51:59.6630 p.m.,0.29,0.07,0.14,1.2,-0.72,0.61
2022-02-17 5:51:59.6730 p.m.,0.14,0.08,-0.15,1.27,-0.81,0.56
2022-02-17 5:51:59.6830 p.m.,-0.11,0.28,-0.72,1.32,-0.84,0.54
2022-02-17 5:51:59.6930 p.m.,-0.13,0.8,-1.12,1.34,-0.89,0.5
2022-02-17 5:51:59.7030 p.m.,-0.16,1.34,-1.16,1.32,-0.98,0.43
2022-02-17 5:51:59.7130 p.m.,-0.27,1.86,-1.01,1.27,-1.12,0.33
2022-02-17 5:51:59.7230 p.m.,-0.49,2.2,-0.82,1.18,-1.26,0.21
2022-02-17 5:51:59.7330 p.m.,-0.78,2.06,-0.68,1.04,-1.39,0.08
2022-02-17 5:51:59.7430 p.m.,-1.03,1.59,-0.58,0.89,-1.47,-0.01
2022-02-17 5:51:59.7530 p.m.,-1.14,1.33,-0.62,0.78,-1.51,-0.04
2022-02-17 5:51:59.7630 p.m.,-1.15,1.34,-0.9,0.75,-1.55,-0.1
2022-02-17 5:51:59.7730 p.m.,-1.21,0.88,-1.26,0.82,-1.56,-0.19
2022-02-17 5:51:59.7840 p.m.,-1.23,-0.18,-1.66,0.94,-1.44,-0.2
2022-02-17 5:51:59.7930 p.m.,-0.78,-1.06,-2.26,1.1,-1.14,-0.14
2022-02-17 5:51:59.8030 p.m.,-0.02,-1.28,-3.06,1.42,-0.44,-0.09
2022-02-17 5:51:59.8140 p.m.,0.46,-1.67,-4.36,1.85,0.7,-0.1
2022-02-17 5:51:59.8240 p.m.,0.4,-1.78,-6.87,1.93,1.42,-0.1
2022-02-17 5:51:59.8340 p.m.,0.16,-1.57,-6.2,1.73,1.7,-0.06
2022-02-17 5:51:59.8440 p.m.,0.11,-1.48,-3.2,1.36,1.65,-0.01
2022-02-17 5:51:59.8540 p.m.,0.03,-2.07,-1.82,0.94,1.29,0.0
2022-02-17 5:51:59.8640 p.m.,-0.32,-2.91,-0.78,0.47,0.67,0.1
2022-02-17 5:51:59.8740 p.m.,-0.52,-3.54,-0.18,-0.04,-0.04,0.29
2022-02-17 5:51:59.8840 p.m.,-0.53,-3.93,0.3,-0.5,-0.72,0.52
2022-02-17 5:51:59.8940 p.m.,-0.62,-3.81,0.42,-0.7,-1.3,0.63
2022-02-17 5:51:59.9040 p.m.,-0.82,-2.36,-0.4,-0.64,-1.53,0.59
2022-02-17 5:51:59.9140 p.m.,-0.66,-1.27,-2.06,-0.36,-1.1,0.36
2022-02-17 5:51:59.9240 p.m.,0.09,-2.39,-4.32,-0.05,-0.22,0.01
2022-02-17 5:51:59.9340 p.m.,0.56,-4.09,-6.61,-0.03,0.4,-0.27
2022-02-17 5:51:59.9440 p.m.,1.09,-5.3,-5.49,-0.39,0.78,-0.43
2022-02-17 5:51:59.9540 p.m.,1.26,-6.84,-2.6,-1.07,1.27,-0.58
2022-02-17 5:51:59.9640 p.m.,0.21,-8.04,-0.8,-2.21,2.49,-0.65
2022-02-17 5:51:59.9740 p.m.,-1.43,-7.77,-1.49,-3.34,3.64,-0.74
2022-02-17 5:51:59.9840 p.m.,-2.69,-5.95,-3.69,-3.96,4.05,-0.94
2022-02-17 5:51:59.9940 p.m.,-2.72,-3.35,-3.51,-4.21,3.84,-1.22
2022-02-17 5:52:00.0040 p.m.,-1.72,-0.72,-2.69,-4.37,3.51,-1.48
2022-02-17 5:52:00.0150 p.m.,-0.28,0.65,-2.73,-4.39,2.95,-1.62
2022-02-17 5:52:00.0240 p.m.,1.35,1.86,-2.52,-4.29,2.07,-1.64
2022-02-17 5:52:00.0340 p.m.,2.68,2.42,-1.11,-4.1,0.73,-1.45
2022-02-17 5:52:00.0450 p.m.,3.39,2.39,1.14,-3.77,-0.77,-1.24
2022-02-17 5:52:00.0550 p.m.,3.73,2.04,3.23,-3.37,-2.18,-1.11
2022-02-17 5:52:00.0650 p.m.,3.68,0.92,4.39,-3.05,-3.43,-0.99
2022-02-17 5:52:00.0750 p.m.,3.62,-0.41,5.33,-2.87,-4.28,-0.86
2022-02-17 5:52:00.0850 p.m.,3.66,-1.7,5.72,-2.81,-4.2,-0.73
2022-02-17 5:52:00.0950 p.m.,3.68,-2.61,5.07,-2.81,-2.75,-0.75
2022-02-17 5:52:00.1050 p.m.,3.0,-3.5,3.03,-2.93,-0.84,-0.95
2022-02-17 5:52:00.1150 p.m.,0.98,-4.04,2.66,-3.02,1.21,-1.13
2022-02-17 5:52:00.1250 p.m.,-0.73,-3.82,4.01,-2.92,2.01,-1.24
2022-02-17 5:52:00.1350 p.m.,-0.83,-3.2,5.25,-2.78,2.36,-1.3
2022-02-17 5:52:00.1450 p.m.,-0.73,-2.4,5.44,-2.79,2.43,-1.23
2022-02-17 5:52:00.1550 p.m.,-1.8,-1.71,4.33,-2.86,2.5,-1.16
2022-02-17 5:52:00.1650 p.m.,-2.29,-0.82,3.57,-2.87,2.26,-1.05
2022-02-17 5:52:00.1750 p.m.,-2.53,-0.52,2.35,-2.65,1.84,-0.87
2022-02-17 5:52:00.1850 p.m.,-2.58,0.05,1.46,-2.26,1.26,-0.7
2022-02-17 5:52:00.1950 p.m.,-2.38,0.28,0.98,-1.74,0.6,-0.57
2022-02-17 5:52:00.2050 p.m.,-1.93,0.26,1.49,-1.27,0.3,-0.5
2022-02-17 5:52:00.2150 p.m.,-1.61,0.13,2.2,-0.98,0.51,-0.41
2022-02-17 5:52:00.2250 p.m.,-1.48,0.17,2.71,-0.82,0.89,-0.28
2022-02-17 5:52:00.2350 p.m.,-1.06,0.59,3.67,-0.75,1.3,-0.15
2022-02-17 5:52:00.2460 p.m.,-0.96,0.94,4.63,-0.74,1.65,-0.05
2022-02-17 5:52:00.2560 p.m.,-1.16,1.19,5.25,-0.72,1.84,0.01
2022-02-17 5:52:00.2660 p.m.,-1.21,1.57,5.52,-0.63,1.83,0.07
2022-02-17 5:52:00.2760 p.m.,-1.09,2.03,5.42,-0.45,1.66,0.11
2022-02-17 5:52:00.2860 p.m.,-1.05,2.46,5.2,-0.17,1.44,0.12
2022-02-17 5:52:00.2960 p.m.,-1.34,2.89,4.66,0.15,1.13,0.13
2022-02-17 5:52:00.3060 p.m.,-1.66,3.43,4.18,0.45,0.81,0.17
2022-02-17 5:52:00.3160 p.m.,-1.93,3.98,3.94,0.69,0.45,0.22
2022-02-17 5:52:00.3260 p.m.,-1.93,4.32,3.72,0.89,0.08,0.3
2022-02-17 5:52:00.3360 p.m.,-1.96,4.47,3.53,1.08,-0.21,0.42
2022-02-17 5:52:00.3460 p.m.,-1.87,4.43,3.28,1.23,-0.43,0.58
2022-02-17 5:52:00.3560 p.m.,-1.63,4.18,2.92,1.32,-0.57,0.79
2022-02-17 5:52:00.3660 p.m.,-1.28,3.79,2.47,1.31,-0.68,1.04
2022-02-17 5:52:00.3760 p.m.,-0.88,3.48,1.73,1.27,-0.76,1.29
2022-02-17 5:52:00.3860 p.m.,-0.57,3.12,0.68,1.3,-0.77,1.44
2022-02-17 5:52:00.3960 p.m.,-0.56,2.47,-0.73,1.48,-0.73,1.42
2022-02-17 5:52:00.4060 p.m.,-0.59,1.77,-2.24,1.58,-0.41,1.25
2022-02-17 5:52:00.4160 p.m.,-0.27,1.18,-3.87,0.87,0.5,0.86
2022-02-17 5:52:00.4260 p.m.,0.91,-0.65,-7.41,-0.18,2.04,0.36
2022-02-17 5:52:00.4360 p.m.,2.85,-4.29,-10.64,-0.56,3.41,0.05
2022-02-17 5:52:00.4460 p.m.,4.14,-7.62,-12.64,-0.62,3.41,-0.19
2022-02-17 5:52:00.4560 p.m.,4.47,-10.58,-11.59,-0.63,2.19,-0.45
2022-02-17 5:52:00.4660 p.m.,4.44,-11.51,-7.69,-0.52,1.24,-0.22
2022-02-17 5:52:00.4760 p.m.,3.6,-6.87,-3.87,-0.24,1.2,0.27
2022-02-17 5:52:00.4880 p.m.,2.89,0.46,-1.29,0.1,1.52,0.72
2022-02-17 5:52:00.4970 p.m.,2.19,5.33,0.76,0.42,1.34,0.99
2022-02-17 5:52:00.5070 p.m.,2.53,8.5,2.97,0.61,0.43,0.99
2022-02-17 5:52:00.5170 p.m.,3.38,9.11,4.87,0.72,-0.67,0.86
2022-02-17 5:52:00.5270 p.m.,2.66,6.49,5.49,0.87,-1.65,0.63
2022-02-17 5:52:00.5370 p.m.,1.33,1.62,5.1,0.49,-2.45,0.23
2022-02-17 5:52:00.5470 p.m.,1.07,-4.11,4.66,-0.37,-2.69,-0.5
2022-02-17 5:52:00.5570 p.m.,2.55,-10.61,2.86,-0.32,-2.01,-1.1
2022-02-17 5:52:00.5680 p.m.,5.25,-15.48,-0.16,0.54,-0.58,-1.11
2022-02-17 5:52:00.5770 p.m.,6.5,-13.53,-3.55,1.0,0.1,-0.7
2022-02-17 5:52:00.5870 p.m.,4.15,-5.63,-2.48,1.11,-0.76,-0.19
2022-02-17 5:52:00.5970 p.m.,1.18,1.6,3.53,1.29,-2.03,0.05
2022-02-17 5:52:00.6070 p.m.,-0.58,4.62,6.61,1.56,-2.69,0.15
2022-02-17 5:52:00.6170 p.m.,-2.08,5.04,5.52,1.85,-2.78,0.17
2022-02-17 5:52:00.6270 p.m.,-2.8,5.0,3.59,2.07,-2.54,0.09
2022-02-17 5:52:00.6370 p.m.,-3.38,4.31,2.77,2.17,-2.35,-0.05
2022-02-17 5:52:00.6470 p.m.,-3.45,3.07,3.02,2.08,-2.42,-0.29
2022-02-17 5:52:00.6570 p.m.,-3.56,1.48,4.05,1.85,-2.72,-0.61
2022-02-17 5:52:00.6670 p.m.,-3.75,-0.29,5.12,1.6,-3.05,-0.92
2022-02-17 5:52:00.6770 p.m.,-3.79,-1.8,5.27,1.36,-3.18,-1.05
2022-02-17 5:52:00.6870 p.m.,-3.19,-2.94,4.63,1.08,-2.96,-0.74
2022-02-17 5:52:00.6970 p.m.,-1.86,-3.48,3.91,0.81,-2.42,-0.2
2022-02-17 5:52:00.7070 p.m.,-0.38,-3.05,3.04,0.82,-1.58,0.05
2022-02-17 5:52:00.7170 p.m.,-1.43,-1.78,1.44,1.24,-0.18,0.15
2022-02-17 5:52:00.7270 p.m.,-3.26,-0.54,-3.42,1.34,0.75,0.41
2022-02-17 5:52:00.7380 p.m.,-3.57,0.67,-4.16,1.15,0.87,0.63
2022-02-17 5:52:00.7480 p.m.,-2.97,0.75,-1.27,0.98,0.44,0.7
2022-02-17 5:52:00.7580 p.m.,-2.55,-0.29,0.77,0.97,-0.07,0.72
2022-02-17 5:52:00.7680 p.m.,-1.78,-1.15,1.54,1.09,-0.45,0.75
2022-02-17 5:52:00.7780 p.m.,-0.83,-1.58,1.5,1.25,-0.65,0.77
2022-02-17 5:52:00.7880 p.m.,-0.5,-1.69,1.28,1.36,-0.71,0.77
2022-02-17 5:52:00.7980 p.m.,-0.53,-1.15,1.04,1.42,-0.66,0.76
2022-02-17 5:52:00.8080 p.m.,-0.41,-0.31,0.79,1.43,-0.51,0.71
2022-02-17 5:52:00.8180 p.m.,-0.39,0.38,0.48,1.38,-0.31,0.63
2022-02-17 5:52:00.8280 p.m.,-0.5,0.86,0.19,1.26,-0.13,0.54
2022-02-17 5:52:00.8380 p.m.,-0.62,1.18,0.12,1.13,0.05,0.44
2022-02-17 5:52:00.8480 p.m.,-0.88,1.36,0.19,1.0,0.24,0.35
2022-02-17 5:52:00.8580 p.m.,-1.1,1.43,0.06,0.87,0.4,0.29
2022-02-17 5:52:00.8680 p.m.,-1.2,1.26,0.05,0.77,0.47,0.26
2022-02-17 5:52:00.8780 p.m.,-1.19,1.01,0.15,0.71,0.44,0.23
2022-02-17 5:52:00.8880 p.m.,-1.28,0.77,0.33,0.66,0.26,0.25
2022-02-17 5:52:00.8980 p.m.,-1.01,0.67,0.57,0.67,0.01,0.29
2022-02-17 5:52:00.9080 p.m.,-0.68,0.75,0.73,0.77,-0.23,0.28
2022-02-17 5:52:00.9180 p.m.,-0.58,0.95,0.5,0.87,-0.44,0.24
2022-02-17 5:52:00.9280 p.m.,-0.41,1.13,0.27,0.99,-0.59,0.17
2022-02-17 5:52:00.9380 p.m.,-0.32,1.27,0.05,1.1,-0.68,0.08
2022-02-17 5:52:00.9480 p.m.,-0.31,1.25,-0.2,1.2,-0.71,-0.0
2022-02-17 5:52:00.9580 p.m.,-0.22,1.1,-0.44,1.29,-0.71,-0.08
2022-02-17 5:52:00.9690 p.m.,-0.14,0.94,-0.63,1.35,-0.68,-0.15
2022-02-17 5:52:00.9790 p.m.,-0.12,0.74,-0.75,1.38,-0.62,-0.19
2022-02-17 5:52:00.9890 p.m.,-0.19,0.45,-0.82,1.4,-0.55,-0.22
2022-02-17 5:52:00.9990 p.m.,-0.24,0.36,-1.01,1.41,-0.49,-0.27
2022-02-17 5:52:01.0090 p.m.,-0.41,0.39,-1.18,1.4,-0.45,-0.31
2022-02-17 5:52:01.0190 p.m.,-0.6,0.35,-1.25,1.34,-0.41,-0.34
2022-02-17 5:52:01.0290 p.m.,-0.71,0.27,-1.22,1.23,-0.35,-0.38
2022-02-17 5:52:01.0390 p.m.,-0.94,-0.25,-1.18,1.06,-0.24,-0.38
2022-02-17 5:52:01.0490 p.m.,-1.06,-1.09,-1.12,0.86,-0.05,-0.3
2022-02-17 5:52:01.0590 p.m.,-0.93,-1.81,-1.17,0.7,0.2,-0.2
2022-02-17 5:52:01.0690 p.m.,-0.75,-2.0,-1.45,0.64,0.5,-0.15
2022-02-17 5:52:01.0790 p.m.,-0.82,-1.54,-2.0,0.68,0.91,-0.09
2022-02-17 5:52:01.0890 p.m.,-1.04,-0.94,-2.93,0.71,1.28,0.04
2022-02-17 5:52:01.0990 p.m.,-1.08,-0.13,-3.62,0.64,1.42,0.16
2022-02-17 5:52:01.1090 p.m.,-0.84,0.41,-2.78,0.51,1.31,0.23
2022-02-17 5:52:01.1190 p.m.,-0.66,0.1,-1.58,0.4,1.03,0.21
2022-02-17 5:52:01.1290 p.m.,-0.48,-0.23,-1.0,0.35,0.7,0.13
2022-02-17 5:52:01.1390 p.m.,-0.22,-0.1,-0.93,0.31,0.4,0.01
2022-02-17 5:52:01.1490 p.m.,0.24,-0.13,-1.07,0.23,0.17,-0.17
2022-02-17 5:52:01.1590 p.m.,0.69,-0.61,-1.1,0.05,0.01,-0.38
2022-02-17 5:52:01.1690 p.m.,0.91,-1.32,-1.16,-0.16,-0.1,-0.58
2022-02-17 5:52:01.1800 p.m.,0.73,-2.33,-0.98,-0.34,-0.25,-0.75
2022-02-17 5:52:01.1890 p.m.,0.14,-3.2,-0.45,-0.53,-0.46,-0.87
2022-02-17 5:52:01.2000 p.m.,-0.45,-3.43,0.1,-0.83,-0.68,-0.94
2022-02-17 5:52:01.2100 p.m.,-1.12,-3.64,0.51,-1.35,-0.79,-0.93
2022-02-17 5:52:01.2200 p.m.,-1.79,-4.26,0.79,-2.02,-0.64,-0.8
2022-02-17 5:52:01.2300 p.m.,-2.4,-5.15,0.77,-2.56,-0.19,-0.65
2022-02-17 5:52:01.2400 p.m.,-3.38,-6.23,-0.04,-2.8,0.78,-0.5
2022-02-17 5:52:01.2500 p.m.,-4.45,-6.73,-2.49,-2.81,2.12,-0.51
2022-02-17 5:52:01.2600 p.m.,-5.04,-5.17,-5.53,-2.83,3.33,-0.65
2022-02-17 5:52:01.2700 p.m.,-4.5,-2.28,-6.46,-3.11,4.24,-0.91
2022-02-17 5:52:01.2800 p.m.,-2.75,-0.31,-5.5,-3.59,4.69,-1.28
2022-02-17 5:52:01.2900 p.m.,-1.32,0.51,-4.13,-4.0,4.54,-1.62
2022-02-17 5:52:01.3000 p.m.,-0.39,0.69,-2.42,-4.21,3.8,-1.74
2022-02-17 5:52:01.3100 p.m.,0.62,1.08,-0.61,-4.2,2.7,-1.68
2022-02-17 5:52:01.3200 p.m.,1.47,1.47,0.91,-4.02,1.34,-1.58
2022-02-17 5:52:01.3300 p.m.,1.12,1.09,2.1,-3.72,-0.06,-1.43
2022-02-17 5:52:01.3400 p.m.,0.18,0.45,3.13,-3.35,-0.96,-1.15
2022-02-17 5:52:01.3500 p.m.,-0.74,0.02,3.64,-3.09,-0.89,-0.79
2022-02-17 5:52:01.3600 p.m.,-2.34,-0.85,3.49,-2.98,-0.16,-0.6
2022-02-17 5:52:01.3700 p.m.,-4.88,-2.64,4.26,-2.92,0.74,-0.49
2022-02-17 5:52:01.3800 p.m.,-6.65,-3.82,4.77,-2.73,1.38,-0.32
2022-02-17 5:52:01.3900 p.m.,-7.36,-5.03,5.29,-2.46,1.57,-0.11
2022-02-17 5:52:01.4000 p.m.,-6.84,-5.65,5.62,-2.2,1.33,0.06
2022-02-17 5:52:01.4100 p.m.,-6.52,-4.16,5.29,-2.04,1.26,0.26
2022-02-17 5:52:01.4210 p.m.,-5.62,-2.65,3.36,-1.9,1.28,0.46
2022-02-17 5:52:01.4310 p.m.,-4.21,-1.7,1.46,-1.66,1.17,0.63
2022-02-17 5:52:01.4410 p.m.,-3.47,-1.25,0.6,-1.46,1.01,0.8
2022-02-17 5:52:01.4510 p.m.,-2.91,-1.05,0.13,-1.32,0.87,0.97
2022-02-17 5:52:01.4610 p.m.,-2.49,-1.21,-0.2,-1.13,0.75,1.15
2022-02-17 5:52:01.4710 p.m.,-2.09,-1.29,-0.41,-0.84,0.72,1.35
2022-02-17 5:52:01.4830 p.m.,-1.44,-1.15,-0.34,-0.54,0.94,1.54
2022-02-17 5:52:01.4910 p.m.,-0.93,-0.61,0.26,-0.35,1.41,1.65
2022-02-17 5:52:01.5010 p.m.,-1.13,0.19,1.85,-0.3,2.08,1.63
2022-02-17 5:52:01.5110 p.m.,-1.77,0.93,3.33,-0.31,2.6,1.62
2022-02-17 5:52:01.5210 p.m.,-2.36,1.26,4.64,-0.37,2.96,1.63
2022-02-17 5:52:01.5310 p.m.,-2.65,1.17,5.47,-0.49,3.18,1.61
2022-02-17 5:52:01.5410 p.m.,-3.19,0.88,5.81,-0.6,3.22,1.55
2022-02-17 5:52:01.5510 p.m.,-3.4,0.69,5.95,-0.64,3.15,1.5
2022-02-17 5:52:01.5610 p.m.,-3.29,0.51,5.37,-0.61,3.04,1.46
2022-02-17 5:52:01.5710 p.m.,-3.02,0.48,4.24,-0.51,2.94,1.38
2022-02-17 5:52:01.5810 p.m.,-2.65,0.62,3.13,-0.31,2.87,1.3
2022-02-17 5:52:01.5910 p.m.,-2.14,0.74,2.07,-0.02,2.94,1.21
2022-02-17 5:52:01.6020 p.m.,-1.97,0.31,1.0,0.13,2.76,1.22
2022-02-17 5:52:01.6110 p.m.,-0.43,0.01,1.5,0.16,2.44,1.26
2022-02-17 5:52:01.6210 p.m.,2.03,-0.17,2.72,0.12,2.13,1.25
2022-02-17 5:52:01.6310 p.m.,3.44,-0.36,3.21,0.06,1.84,1.14
2022-02-17 5:52:01.6410 p.m.,3.85,-0.52,3.32,0.02,1.59,0.99
2022-02-17 5:52:01.6520 p.m.,3.81,-0.4,3.16,0.02,1.43,0.87
2022-02-17 5:52:01.6620 p.m.,3.51,0.23,2.75,0.04,1.38,0.79
2022-02-17 5:52:01.6720 p.m.,2.81,1.05,2.09,0.06,1.35,0.73
2022-02-17 5:52:01.6820 p.m.,1.91,1.63,1.28,0.13,1.4,0.69
2022-02-17 5:52:01.6920 p.m.,0.74,1.93,0.43,0.21,1.54,0.63
2022-02-17 5:52:01.7020 p.m.,-0.69,1.48,-0.42,0.2,1.76,0.64
2022-02-17 5:52:01.7120 p.m.,-1.63,0.69,-0.85,0.1,1.95,0.71
2022-02-17 5:52:01.7220 p.m.,-2.19,-0.01,-1.07,-0.04,2.05,0.76
2022-02-17 5:52:01.7320 p.m.,-2.66,-1.04,-1.5,-0.2,2.24,0.75
2022-02-17 5:52:01.7420 p.m.,-2.75,-1.76,-2.23,-0.39,2.53,0.69
2022-02-17 5:52:01.7520 p.m.,-2.39,-1.75,-3.31,-0.56,2.91,0.66
2022-02-17 5:52:01.7620 p.m.,-2.07,-1.19,-4.1,-0.73,3.28,0.72
2022-02-17 5:52:01.7720 p.m.,-2.03,-0.23,-4.48,-0.93,3.46,0.85
2022-02-17 5:52:01.7820 p.m.,-2.26,0.65,-5.05,-1.2,3.33,0.91
2022-02-17 5:52:01.7920 p.m.,-2.63,0.96,-5.87,-1.35,2.72,0.87
2022-02-17 5:52:01.8020 p.m.,-2.55,0.58,-4.9,-1.25,2.03,0.78
2022-02-17 5:52:01.8120 p.m.,-1.79,0.3,-1.87,-1.08,1.94,0.62
2022-02-17 5:52:01.8220 p.m.,-1.7,0.29,-0.59,-0.88,2.33,0.55
2022-02-17 5:52:01.8320 p.m.,-1.99,0.5,-1.5,-0.62,2.8,0.56
2022-02-17 5:52:01.8420 p.m.,-2.33,1.12,-1.99,-0.27,3.06,0.6
2022-02-17 5:52:01.8520 p.m.,-2.25,1.89,-1.78,0.15,3.03,0.64
2022-02-17 5:52:01.8620 p.m.,-1.88,2.79,-0.83,0.58,2.88,0.64
2022-02-17 5:52:01.8720 p.m.,-1.82,3.34,0.38,0.99,2.54,0.69
2022-02-17 5:52:01.8820 p.m.,-1.7,3.5,1.69,1.34,1.89,0.78
2022-02-17 5:52:01.8930 p.m.,-1.1,3.27,2.89,1.73,0.95,0.73
2022-02-17 5:52:01.9030 p.m.,-0.33,2.1,4.63,2.13,-0.07,0.51
2022-02-17 5:52:01.9130 p.m.,0.72,0.23,6.56,2.33,-1.0,0.22
2022-02-17 5:52:01.9230 p.m.,2.09,-2.28,7.2,1.59,-1.6,0.01
2022-02-17 5:52:01.9330 p.m.,3.31,-5.51,5.36,0.33,-1.28,-0.35
2022-02-17 5:52:01.9430 p.m.,3.41,-10.87,-1.45,0.03,-0.55,-0.66
2022-02-17 5:52:01.9540 p.m.,4.49,-15.85,-7.88,0.14,0.39,-0.52
2022-02-17 5:52:01.9630 p.m.,6.52,-12.86,-6.31,0.45,0.96,-0.24
2022-02-17 5:52:01.9730 p.m.,5.45,-4.0,-2.79,0.79,0.96,-0.05
2022-02-17 5:52:01.9830 p.m.,2.44,2.35,0.01,0.97,0.46,-0.02
2022-02-17 5:52:01.9930 p.m.,0.37,4.2,2.89,0.88,-0.14,-0.11
2022-02-17 5:52:02.0030 p.m.,-1.01,4.81,4.84,0.65,-0.58,-0.24
2022-02-17 5:52:02.0130 p.m.,-1.87,5.38,4.76,0.39,-0.8,-0.41
2022-02-17 5:52:02.0230 p.m.,-2.77,5.61,3.9,0.16,-0.97,-0.62
2022-02-17 5:52:02.0330 p.m.,-3.54,5.0,3.5,-0.02,-1.11,-0.91
2022-02-17 5:52:02.0430 p.m.,-4.08,2.46,3.56,-0.31,-1.02,-0.93
2022-02-17 5:52:02.0530 p.m.,-3.72,-1.04,3.96,-0.73,-0.64,-0.65
2022-02-17 5:52:02.0630 p.m.,-2.47,-3.15,4.39,-1.03,-0.2,-0.31
2022-02-17 5:52:02.0730 p.m.,-2.35,-4.11,4.41,-0.86,0.33,-0.06
2022-02-17 5:52:02.0830 p.m.,-2.81,-3.84,3.06,-0.11,1.22,0.21
2022-02-17 5:52:02.0930 p.m.,-2.71,-2.28,-0.77,0.69,1.98,0.51
2022-02-17 5:52:02.1030 p.m.,-2.23,-0.59,-2.87,1.24,2.25,0.77
2022-02-17 5:52:02.1130 p.m.,-2.07,0.39,-1.26,1.48,2.04,0.9
2022-02-17 5:52:02.1240 p.m.,-2.03,0.52,1.08,1.49,1.59,1.01
2022-02-17 5:52:02.1340 p.m.,-1.52,0.05,2.65,1.44,1.13,1.14
2022-02-17 5:52:02.1440 p.m.,-0.69,-0.26,2.98,1.5,0.85,1.23
2022-02-17 5:52:02.1540 p.m.,-0.18,-0.43,2.02,1.69,0.79,1.22
2022-02-17 5:52:02.1640 p.m.,-0.26,-0.37,0.37,1.89,0.84,1.1
2022-02-17 5:52:02.1740 p.m.,-0.56,-0.14,-0.72,1.94,0.87,0.93
2022-02-17 5:52:02.1840 p.m.,-0.78,0.12,-0.52,1.81,0.9,0.76
2022-02-17 5:52:02.1940 p.m.,-0.97,0.65,0.14,1.58,1.05,0.65
2022-02-17 5:52:02.2040 p.m.,-1.16,1.07,0.32,1.3,1.26,0.58
2022-02-17 5:52:02.2140 p.m.,-1.1,1.27,0.07,1.08,1.53,0.54
2022-02-17 5:52:02.2240 p.m.,-0.96,0.92,-0.32,0.97,1.76,0.52
2022-02-17 5:52:02.2340 p.m.,-0.89,0.84,-1.07,0.96,1.81,0.48
2022-02-17 5:52:02.2440 p.m.,-0.71,0.41,-1.23,1.01,1.71,0.47
2022-02-17 5:52:02.2540 p.m.,-0.5,0.08,-1.26,1.07,1.43,0.48
2022-02-17 5:52:02.2640 p.m.,-0.25,0.23,-1.1,1.13,1.01,0.5
2022-02-17 5:52:02.2740 p.m.,-0.08,0.52,-0.69,1.15,0.55,0.49
2022-02-17 5:52:02.2840 p.m.,-0.09,0.69,-0.5,1.15,0.11,0.46
2022-02-17 5:52:02.2940 p.m.,-0.09,0.91,-0.49,1.15,-0.2,0.4
2022-02-17 5:52:02.3040 p.m.,-0.14,1.23,-0.72,1.17,-0.35,0.29
2022-02-17 5:52:02.3140 p.m.,-0.26,1.44,-1.29,1.21,-0.37,0.15
2022-02-17 5:52:02.3240 p.m.,-0.44,1.34,-1.83,1.22,-0.31,0.03
2022-02-17 5:52:02.3340 p.m.,-0.51,1.12,-2.05,1.16,-0.27,-0.09
2022-02-17 5:52:02.3440 p.m.,-0.5,0.74,-1.77,1.04,-0.29,-0.18
2022-02-17 5:52:02.3550 p.m.,-0.51,0.35,-1.24,0.9,-0.31,-0.26
2022-02-17 5:52:02.3650 p.m.,-0.53,0.09,-0.99,0.8,-0.26,-0.3
2022-02-17 5:52:02.3750 p.m.,-0.54,-0.23,-1.23,0.78,-0.12,-0.32
2022-02-17 5:52:02.3850 p.m.,-0.62,-0.48,-1.77,0.82,0.07,-0.33
2022-02-17 5:52:02.3950 p.m.,-0.82,-0.55,-2.39,0.86,0.24,-0.32
2022-02-17 5:52:02.4050 p.m.,-1.04,-0.55,-2.62,0.89,0.35,-0.27
2022-02-17 5:52:02.4150 p.m.,-1.18,-0.57,-2.54,0.9,0.37,-0.21
2022-02-17 5:52:02.4250 p.m.,-1.22,-0.78,-2.48,0.88,0.33,-0.13
2022-02-17 5:52:02.4350 p.m.,-1.2,-1.14,-2.35,0.81,0.21,-0.0
2022-02-17 5:52:02.4450 p.m.,-1.05,-1.35,-2.14,0.72,0.04,0.15
2022-02-17 5:52:02.4550 p.m.,-0.75,-1.28,-2.01,0.65,-0.24,0.27
2022-02-17 5:52:02.4650 p.m.,-0.47,-1.25,-1.95,0.6,-0.62,0.33
2022-02-17 5:52:02.4750 p.m.,-0.47,-1.54,-1.79,0.52,-0.89,0.34
2022-02-17 5:52:02.4850 p.m.,-0.55,-1.92,-1.62,0.41,-0.83,0.3
2022-02-17 5:52:02.4950 p.m.,-0.59,-2.26,-1.81,0.32,-0.37,0.22
2022-02-17 5:52:02.5050 p.m.,-0.49,-2.61,-2.5,0.29,0.36,0.01
2022-02-17 5:52:02.5150 p.m.,-0.45,-2.75,-3.35,0.29,1.11,-0.35
2022-02-17 5:52:02.5250 p.m.,-0.65,-2.96,-3.98,0.14,1.75,-0.63
2022-02-17 5:52:02.5350 p.m.,-1.03,-3.84,-3.91,-0.15,2.24,-0.8
2022-02-17 5:52:02.5450 p.m.,-1.57,-4.43,-3.41,-0.52,2.63,-0.89
2022-02-17 5:52:02.5550 p.m.,-2.25,-4.43,-3.4,-0.93,2.89,-0.98
2022-02-17 5:52:02.5660 p.m.,-2.96,-4.37,-3.92,-1.43,2.98,-1.1
2022-02-17 5:52:02.5750 p.m.,-3.56,-4.98,-4.17,-2.05,2.91,-1.16
2022-02-17 5:52:02.5850 p.m.,-3.63,-5.94,-3.94,-2.64,2.7,-1.18
2022-02-17 5:52:02.5950 p.m.,-3.59,-6.02,-3.46,-3.06,2.48,-1.28
2022-02-17 5:52:02.6060 p.m.,-3.62,-4.91,-2.83,-3.28,2.49,-1.47
2022-02-17 5:52:02.6160 p.m.,-3.23,-3.5,-2.78,-3.47,2.51,-1.59
2022-02-17 5:52:02.6260 p.m.,-2.23,-1.43,-2.57,-3.67,2.47,-1.65
2022-02-17 5:52:02.6360 p.m.,-1.56,0.24,-1.86,-3.86,2.38,-1.73
2022-02-17 5:52:02.6460 p.m.,-1.69,0.66,-1.31,-4.0,2.11,-1.74
2022-02-17 5:52:02.6560 p.m.,-1.89,0.27,-0.41,-3.97,1.63,-1.6
2022-02-17 5:52:02.6660 p.m.,-1.59,0.38,0.87,-3.71,1.11,-1.35
2022-02-17 5:52:02.6760 p.m.,-1.48,0.26,1.98,-3.37,0.58,-1.08
2022-02-17 5:52:02.6860 p.m.,-1.86,-0.46,2.84,-3.04,0.13,-0.82
2022-02-17 5:52:02.6960 p.m.,-2.27,-1.11,3.58,-2.84,-0.26,-0.54
2022-02-17 5:52:02.7060 p.m.,-1.85,-1.91,4.12,-2.74,-0.46,-0.27
2022-02-17 5:52:02.7160 p.m.,-1.43,-3.05,4.41,-2.67,-0.34,-0.07
2022-02-17 5:52:02.7260 p.m.,-1.53,-3.84,4.06,-2.62,-0.06,0.0
2022-02-17 5:52:02.7360 p.m.,-1.94,-3.76,3.65,-2.63,0.49,0.03
2022-02-17 5:52:02.7460 p.m.,-2.34,-3.1,3.12,-2.64,1.11,0.05
2022-02-17 5:52:02.7560 p.m.,-2.52,-2.44,2.63,-2.59,1.48,0.04
2022-02-17 5:52:02.7660 p.m.,-2.56,-1.73,2.59,-2.58,1.73,0.03
2022-02-17 5:52:02.7770 p.m.,-2.42,-1.38,2.18,-2.66,1.89,0.06
2022-02-17 5:52:02.7860 p.m.,-2.32,-1.22,1.66,-2.78,1.92,0.09
2022-02-17 5:52:02.7960 p.m.,-2.4,-0.93,1.52,-2.65,2.2,0.28
2022-02-17 5:52:02.8060 p.m.,-2.49,-0.97,0.89,-2.39,2.3,0.52
2022-02-17 5:52:02.8160 p.m.,-2.16,-1.43,1.13,-2.08,1.94,0.78
2022-02-17 5:52:02.8270 p.m.,-2.03,-1.35,2.16,-1.7,1.56,0.94
2022-02-17 5:52:02.8370 p.m.,-2.33,-1.31,3.04,-1.39,1.68,1.08
2022-02-17 5:52:02.8470 p.m.,-2.46,-1.23,3.22,-1.27,2.25,1.27
2022-02-17 5:52:02.8570 p.m.,-2.55,-0.85,3.65,-1.37,2.73,1.41
2022-02-17 5:52:02.8670 p.m.,-2.62,-0.35,5.3,-1.59,3.16,1.4
2022-02-17 5:52:02.8770 p.m.,-2.68,0.19,6.51,-1.78,3.44,1.22
2022-02-17 5:52:02.8870 p.m.,-2.94,0.72,6.64,-1.7,3.43,0.94
2022-02-17 5:52:02.8970 p.m.,-3.4,1.25,5.95,-1.38,3.04,0.84
2022-02-17 5:52:02.9070 p.m.,-2.73,2.03,4.93,-0.99,2.53,0.79
2022-02-17 5:52:02.9170 p.m.,-0.79,3.0,4.85,-0.56,2.05,0.8
2022-02-17 5:52:02.9270 p.m.,0.42,3.51,4.64,-0.16,1.7,0.8
2022-02-17 5:52:02.9370 p.m.,1.23,4.02,4.53,0.2,1.4,0.77
2022-02-17 5:52:02.9470 p.m.,1.48,4.34,4.61,0.51,1.08,0.75
2022-02-17 5:52:02.9570 p.m.,1.67,4.46,4.69,0.78,0.82,0.76
2022-02-17 5:52:02.9670 p.m.,1.87,4.51,4.51,1.01,0.7,0.78
2022-02-17 5:52:02.9770 p.m.,1.78,4.5,3.97,1.23,0.59,0.83
2022-02-17 5:52:02.9870 p.m.,1.45,4.48,3.63,1.42,0.45,0.86
2022-02-17 5:52:02.9970 p.m.,0.97,4.58,3.38,1.62,0.31,0.88
2022-02-17 5:52:03.0070 p.m.,0.36,4.54,2.7,2.0,0.3,0.95
2022-02-17 5:52:03.0170 p.m.,-0.25,4.41,1.67,2.33,0.2,0.95
2022-02-17 5:52:03.0270 p.m.,-1.16,3.64,1.04,2.01,-0.07,0.75
2022-02-17 5:52:03.0380 p.m.,-2.03,1.46,0.09,0.68,0.05,0.31
2022-02-17 5:52:03.0480 p.m.,-1.97,-2.62,-4.33,-0.11,0.83,-0.14
2022-02-17 5:52:03.0580 p.m.,-0.86,-7.33,-10.27,-0.42,1.72,-0.2
2022-02-17 5:52:03.0680 p.m.,0.21,-9.9,-12.51,-0.91,2.04,-0.04
2022-02-17 5:52:03.0790 p.m.,1.51,-11.49,-11.05,-1.09,1.65,0.2
2022-02-17 5:52:03.0880 p.m.,3.23,-10.73,-8.46,-0.96,1.05,0.55
2022-02-17 5:52:03.0980 p.m.,4.3,-6.65,-5.97,-0.53,0.74,0.89
2022-02-17 5:52:03.1080 p.m.,3.22,-0.36,-4.63,0.03,0.6,1.07
2022-02-17 5:52:03.1180 p.m.,0.58,6.01,-3.4,0.33,0.5,1.24
2022-02-17 5:52:03.1280 p.m.,-1.26,9.86,-1.35,0.88,0.57,1.25
2022-02-17 5:52:03.1390 p.m.,-1.85,9.28,0.45,1.83,0.57,0.99
2022-02-17 5:52:03.1480 p.m.,-1.97,4.41,1.05,2.49,-0.02,0.44
2022-02-17 5:52:03.1580 p.m.,-1.2,-0.37,3.04,2.12,-1.5,-0.15
2022-02-17 5:52:03.1680 p.m.,0.05,-3.67,7.3,0.72,-3.09,-0.79
2022-02-17 5:52:03.1780 p.m.,0.99,-7.1,9.61,-0.61,-3.74,-1.16
2022-02-17 5:52:03.1880 p.m.,2.71,-9.37,7.1,-0.93,-2.83,-1.05
2022-02-17 5:52:03.1980 p.m.,5.58,-8.7,1.29,-0.21,-0.54,-0.63
2022-02-17 5:52:03.2080 p.m.,7.69,-6.9,-6.5,0.64,0.84,-0.2
2022-02-17 5:52:03.2180 p.m.,6.58,-2.28,-8.08,1.25,0.83,0.06
2022-02-17 5:52:03.2280 p.m.,3.54,2.68,-0.55,1.6,0.48,0.23
2022-02-17 5:52:03.2380 p.m.,1.57,4.7,3.48,1.78,0.29,0.32
2022-02-17 5:52:03.2480 p.m.,-0.29,6.27,3.92,1.93,0.08,0.21
2022-02-17 5:52:03.2580 p.m.,-2.13,5.97,3.79,2.01,-0.35,-0.14
2022-02-17 5:52:03.2690 p.m.,-3.81,4.47,4.03,1.88,-1.2,-0.72
2022-02-17 5:52:03.2790 p.m.,-5.22,2.25,5.1,1.55,-2.41,-1.4
2022-02-17 5:52:03.2890 p.m.,-6.24,-0.48,6.81,1.12,-3.37,-1.88
2022-02-17 5:52:03.2990 p.m.,-6.54,-2.63,7.22,0.5,-3.38,-1.43
2022-02-17 5:52:03.3090 p.m.,-4.36,-3.9,6.27,-0.11,-2.7,-0.33
2022-02-17 5:52:03.3190 p.m.,-0.63,-3.64,4.87,-0.41,-2.06,0.31
2022-02-17 5:52:03.3290 p.m.,-1.28,-2.55,3.54,-0.2,-1.31,0.4
2022-02-17 5:52:03.3390 p.m.,-4.0,-2.52,1.73,1.02,0.46,0.4
2022-02-17 5:52:03.3490 p.m.,-5.05,-1.87,-5.28,1.94,1.82,0.76
2022-02-17 5:52:03.3590 p.m.,-3.88,-0.26,-7.81,2.3,2.29,1.07
2022-02-17 5:52:03.3690 p.m.,-2.48,-0.15,-2.68,2.25,2.12,1.16
2022-02-17 5:52:03.3790 p.m.,-2.16,-0.57,1.08,2.01,1.69,1.19
2022-02-17 5:52:03.3890 p.m.,-1.61,-0.35,2.68,1.75,1.17,1.22
2022-02-17 5:52:03.3990 p.m.,-0.91,0.39,2.88,1.57,0.78,1.19
2022-02-17 5:52:03.4090 p.m.,-0.29,0.81,2.13,1.49,0.58,1.09
2022-02-17 5:52:03.4190 p.m.,-0.06,0.68,0.81,1.48,0.44,0.95
2022-02-17 5:52:03.4290 p.m.,0.02,0.69,-0.06,1.48,0.28,0.82
2022-02-17 5:52:03.4390 p.m.,0.02,1.05,-0.31,1.45,0.18,0.68
2022-02-17 5:52:03.4490 p.m.,-0.08,1.5,-0.37,1.37,0.19,0.58
2022-02-17 5:52:03.4590 p.m.,-0.33,1.29,-0.58,1.23,0.21,0.56
2022-02-17 5:52:03.4690 p.m.,-0.24,0.96,-0.49,1.06,0.16,0.6
2022-02-17 5:52:03.4790 p.m.,-0.11,1.01,-0.2,0.92,0.02,0.61
2022-02-17 5:52:03.4890 p.m.,-0.17,1.18,-0.05,0.84,-0.18,0.57
2022-02-17 5:52:03.4990 p.m.,-0.12,1.27,-0.07,0.85,-0.42,0.5
2022-02-17 5:52:03.5090 p.m.,-0.01,1.38,-0.29,0.91,-0.65,0.41
2022-02-17 5:52:03.5200 p.m.,0.15,1.6,-0.5,0.98,-0.9,0.3
2022-02-17 5:52:03.5300 p.m.,0.21,1.73,-0.57,1.06,-1.17,0.18
2022-02-17 5:52:03.5400 p.m.,0.19,1.79,-0.54,1.12,-1.41,0.05
2022-02-17 5:52:03.5500 p.m.,0.09,1.67,-0.53,1.14,-1.59,-0.09
2022-02-17 5:52:03.5600 p.m.,-0.03,1.36,-0.58,1.14,-1.68,-0.23
2022-02-17 5:52:03.5700 p.m.,-0.14,0.7,-0.71,1.1,-1.67,-0.36
2022-02-17 5:52:03.5800 p.m.,-0.24,-0.13,-0.9,1.05,-1.59,-0.46
2022-02-17 5:52:03.5900 p.m.,-0.33,-0.74,-1.12,0.99,-1.46,-0.49
2022-02-17 5:52:03.6000 p.m.,-0.44,-0.84,-1.35,0.93,-1.29,-0.45
2022-02-17 5:52:03.6100 p.m.,-0.51,-0.59,-1.61,0.91,-1.07,-0.39
2022-02-17 5:52:03.6200 p.m.,-0.61,-0.62,-2.01,0.95,-0.79,-0.35
2022-02-17 5:52:03.6300 p.m.,-0.83,-1.08,-2.62,1.12,-0.25,-0.36
2022-02-17 5:52:03.6400 p.m.,-1.03,-1.8,-3.55,1.41,0.68,-0.35
2022-02-17 5:52:03.6500 p.m.,-0.99,-2.54,-5.74,1.44,1.26,-0.19
2022-02-17 5:52:03.6600 p.m.,-0.55,-2.67,-5.36,1.33,1.43,-0.02
2022-02-17 5:52:03.6700 p.m.,-0.29,-2.36,-3.15,1.19,1.28,0.1
2022-02-17 5:52:03.6800 p.m.,-0.44,-2.33,-2.23,1.01,0.83,0.14
2022-02-17 5:52:03.6900 p.m.,-0.66,-2.55,-1.43,0.74,0.28,0.11
2022-02-17 5:52:03.7000 p.m.,-0.94,-2.68,-0.82,0.41,-0.16,-0.01
2022-02-17 5:52:03.7100 p.m.,-1.48,-2.5,-0.6,0.03,-0.39,-0.19
2022-02-17 5:52:03.7200 p.m.,-2.0,-2.42,-0.63,-0.33,-0.37,-0.36
2022-02-17 5:52:03.7300 p.m.,-2.14,-2.95,-0.96,-0.56,-0.05,-0.5
2022-02-17 5:52:03.7410 p.m.,-1.86,-3.26,-1.91,-0.64,0.6,-0.64
2022-02-17 5:52:03.7500 p.m.,-1.7,-3.25,-3.37,-0.69,1.4,-0.77
2022-02-17 5:52:03.7610 p.m.,-1.68,-3.66,-4.38,-0.88,2.11,-0.83
2022-02-17 5:52:03.7710 p.m.,-1.53,-4.82,-3.67,-1.35,2.85,-0.86
2022-02-17 5:52:03.7810 p.m.,-1.76,-6.1,-2.84,-2.12,3.47,-0.92
2022-02-17 5:52:03.7910 p.m.,-2.67,-6.67,-2.96,-2.79,3.53,-0.99
2022-02-17 5:52:03.8010 p.m.,-3.32,-5.55,-2.59,-3.21,3.15,-1.08
2022-02-17 5:52:03.8110 p.m.,-2.96,-2.58,-2.19,-3.62,2.92,-1.35
2022-02-17 5:52:03.8210 p.m.,-2.32,-0.17,-2.54,-4.15,2.99,-1.71
2022-02-17 5:52:03.8310 p.m.,-1.22,0.32,-3.4,-4.52,2.78,-1.95
2022-02-17 5:52:03.8410 p.m.,0.24,1.27,-2.96,-4.45,1.96,-2.02
2022-02-17 5:52:03.8510 p.m.,1.15,1.67,-1.12,-3.96,0.48,-1.9
2022-02-17 5:52:03.8610 p.m.,1.18,1.71,1.49,-3.39,-1.07,-1.63
2022-02-17 5:52:03.8710 p.m.,0.14,1.95,3.88,-3.0,-2.23,-1.29
2022-02-17 5:52:03.8810 p.m.,-0.85,1.5,4.63,-2.87,-2.92,-0.91
2022-02-17 5:52:03.8910 p.m.,-1.41,0.66,4.91,-2.96,-2.85,-0.65
2022-02-17 5:52:03.9010 p.m.,-1.88,-0.88,4.88,-3.07,-1.45,-0.61
2022-02-17 5:52:03.9110 p.m.,-2.71,-3.03,3.64,-3.09,0.73,-0.72
2022-02-17 5:52:03.9210 p.m.,-4.07,-4.78,1.57,-2.95,2.46,-0.81
2022-02-17 5:52:03.9310 p.m.,-4.3,-4.57,1.57,-2.56,3.4,-0.74
2022-02-17 5:52:03.9410 p.m.,-3.62,-2.84,3.07,-2.01,3.65,-0.69
2022-02-17 5:52:03.9510 p.m.,-3.61,-1.43,4.39,-1.57,3.71,-0.58
2022-02-17 5:52:03.9610 p.m.,-4.37,-0.22,4.31,-2.01,3.73,-0.29
2022-02-17 5:52:03.9720 p.m.,-5.14,0.63,1.6,-2.92,3.23,-0.0
2022-02-17 5:52:03.9820 p.m.,-5.6,0.46,-0.55,-3.28,2.69,0.14
2022-02-17 5:52:03.9920 p.m.,-5.49,-0.29,-3.11,-2.76,1.7,0.43
2022-02-17 5:52:04.0020 p.m.,-4.95,0.51,-4.95,-1.75,0.13,0.67
2022-02-17 5:52:04.0120 p.m.,-4.37,1.21,-2.9,-1.07,-1.12,0.7
2022-02-17 5:52:04.0220 p.m.,-3.59,1.15,0.75,-0.99,-1.41,0.69
2022-02-17 5:52:04.0320 p.m.,-2.2,2.07,2.58,-1.27,-1.11,0.54
2022-02-17 5:52:04.0420 p.m.,-0.55,2.45,3.57,-1.6,-0.02,0.57
2022-02-17 5:52:04.0520 p.m.,1.05,3.05,2.64,-1.72,1.28,0.82
2022-02-17 5:52:04.0620 p.m.,1.47,5.27,1.08,-1.72,1.84,0.87
2022-02-17 5:52:04.0720 p.m.,0.32,6.66,3.03,-1.62,1.85,0.74
2022-02-17 5:52:04.0820 p.m.,-0.67,6.74,6.24,-1.59,1.98,0.52
2022-02-17 5:52:04.0920 p.m.,-0.84,4.99,6.94,-1.76,2.47,0.36
2022-02-17 5:52:04.1020 p.m.,-0.36,1.33,5.03,-2.05,3.08,0.23
2022-02-17 5:52:04.1120 p.m.,0.35,-2.57,2.49,-2.12,3.6,0.05
2022-02-17 5:52:04.1220 p.m.,0.17,-6.54,-0.7,-1.58,3.82,-0.11
2022-02-17 5:52:04.1320 p.m.,-1.49,-9.39,-3.79,-0.86,3.62,0.09
2022-02-17 5:52:04.1420 p.m.,-3.05,-9.79,-4.7,-0.52,3.48,0.62
2022-02-17 5:52:04.1520 p.m.,-3.22,-10.0,-1.5,-0.57,3.81,1.13
2022-02-17 5:52:04.1630 p.m.,-2.77,-11.69,2.26,-0.74,4.16,1.46
2022-02-17 5:52:04.1720 p.m.,-0.87,-12.25,4.11,-0.62,4.15,1.72
2022-02-17 5:52:04.1820 p.m.,1.39,-10.24,3.54,-0.32,3.92,1.79
2022-02-17 5:52:04.1920 p.m.,1.81,-6.64,3.29,0.06,3.83,1.72
2022-02-17 5:52:04.2030 p.m.,0.29,-3.61,3.15,0.32,3.89,1.55
2022-02-17 5:52:04.2120 p.m.,-1.7,-2.01,2.59,0.35,4.06,1.33
2022-02-17 5:52:04.2230 p.m.,-3.81,-1.02,2.17,0.19,3.88,1.16
2022-02-17 5:52:04.2320 p.m.,-5.42,-0.05,2.45,0.17,3.24,1.06
2022-02-17 5:52:04.2430 p.m.,-5.29,1.15,2.26,0.38,2.29,1.16
2022-02-17 5:52:04.2530 p.m.,-2.94,2.72,0.99,0.49,2.04,1.26
2022-02-17 5:52:04.2630 p.m.,-1.79,4.46,-0.89,0.48,2.25,1.36
2022-02-17 5:52:04.2730 p.m.,-2.44,7.82,-1.6,0.55,2.23,1.42
2022-02-17 5:52:04.2830 p.m.,-2.74,12.04,-1.34,0.46,2.27,1.45
2022-02-17 5:52:04.2930 p.m.,-1.84,15.13,-1.22,-0.07,2.32,1.32
2022-02-17 5:52:04.3030 p.m.,-0.33,16.24,-2.21,-0.69,2.22,0.98
2022-02-17 5:52:04.3130 p.m.,0.94,13.62,-1.82,-1.23,1.82,0.47
2022-02-17 5:52:04.3230 p.m.,1.93,8.92,-1.66,-1.53,1.39,-0.16
2022-02-17 5:52:04.3330 p.m.,1.51,4.97,1.51,-1.75,1.2,-0.73
2022-02-17 5:52:04.3430 p.m.,0.67,1.82,4.16,-1.91,1.14,-1.2
2022-02-17 5:52:04.3530 p.m.,0.54,-1.15,3.59,-2.11,1.32,-1.6
2022-02-17 5:52:04.3630 p.m.,0.63,-3.97,2.42,-2.46,1.47,-1.93
2022-02-17 5:52:04.3730 p.m.,2.14,-6.18,5.67,-2.81,2.19,-2.32
2022-02-17 5:52:04.3830 p.m.,3.34,-6.93,9.84,-3.04,3.28,-2.76
2022-02-17 5:52:04.3930 p.m.,2.99,-6.13,10.69,-3.41,3.58,-3.17
2022-02-17 5:52:04.4030 p.m.,1.63,-4.74,9.94,-3.88,2.68,-3.55
2022-02-17 5:52:04.4130 p.m.,-1.05,-3.03,5.67,-3.51,2.13,-3.76
2022-02-17 5:52:04.4230 p.m.,-3.97,-2.21,-4.13,-1.67,2.55,-3.11
2022-02-17 5:52:04.4340 p.m.,-7.28,-2.32,-6.3,-0.9,2.22,-2.01
2022-02-17 5:52:04.4430 p.m.,-9.6,-1.83,4.54,-0.51,0.5,-0.97
2022-02-17 5:52:04.4530 p.m.,-11.59,0.51,10.13,0.2,0.6,0.58
2022-02-17 5:52:04.4640 p.m.,-8.47,4.19,8.77,-0.02,1.56,1.34
2022-02-17 5:52:04.4740 p.m.,-5.06,5.53,2.85,-1.17,1.1,0.38
2022-02-17 5:52:04.4840 p.m.,-2.74,2.49,-2.18,-1.3,1.64,-0.55
2022-02-17 5:52:04.4940 p.m.,4.1,-4.91,-10.59,-0.86,0.91,-0.86
2022-02-17 5:52:04.5040 p.m.,8.55,-10.44,-12.43,-0.05,0.0,-0.67
2022-02-17 5:52:04.5140 p.m.,6.43,-8.72,-5.62,0.13,0.63,-0.02
2022-02-17 5:52:04.5240 p.m.,7.55,-0.15,0.38,0.05,2.07,0.02
2022-02-17 5:52:04.5340 p.m.,2.94,5.83,0.82,0.19,2.29,-0.16
2022-02-17 5:52:04.5440 p.m.,-3.62,7.64,0.21,0.63,2.06,0.07
2022-02-17 5:52:04.5540 p.m.,-4.54,6.39,-3.56,0.82,2.23,0.49
2022-02-17 5:52:04.5640 p.m.,-4.81,-0.74,-4.57,0.71,2.56,0.92
2022-02-17 5:52:04.5740 p.m.,-2.59,-5.27,-0.62,0.76,2.42,0.89
2022-02-17 5:52:04.5840 p.m.,2.69,-1.81,-1.44,1.18,1.59,0.57
2022-02-17 5:52:04.5940 p.m.,5.38,4.18,-3.79,1.44,0.7,0.37
2022-02-17 5:52:04.6040 p.m.,4.85,6.49,-4.15,1.52,0.44,0.21
2022-02-17 5:52:04.6140 p.m.,2.75,6.88,-2.68,1.52,1.08,0.06
2022-02-17 5:52:04.6240 p.m.,0.52,7.57,-3.77,1.72,1.28,0.01
2022-02-17 5:52:04.6340 p.m.,-0.2,7.2,-6.77,1.93,1.04,0.4
2022-02-17 5:52:04.6440 p.m.,-1.28,4.29,-5.48,1.93,1.0,0.98
2022-02-17 5:52:04.6540 p.m.,-0.55,2.39,-3.1,1.73,1.18,1.41
2022-02-17 5:52:04.6650 p.m.,3.09,3.08,-3.89,1.71,1.2,1.71
2022-02-17 5:52:04.6740 p.m.,5.19,5.46,-5.04,2.18,0.92,1.7
2022-02-17 5:52:04.6850 p.m.,2.64,9.75,-3.66,2.55,0.55,1.55
2022-02-17 5:52:04.6950 p.m.,-2.3,12.17,-2.91,2.96,0.12,1.58
2022-02-17 5:52:04.7050 p.m.,-8.23,11.86,0.01,3.56,-0.43,1.87
2022-02-17 5:52:04.7150 p.m.,-12.08,8.88,5.13,4.32,-1.33,2.41
2022-02-17 5:52:04.7250 p.m.,-12.73,6.07,10.05,5.18,-2.2,3.2
2022-02-17 5:52:04.7350 p.m.,-11.42,4.45,13.99,6.15,-2.52,4.1
2022-02-17 5:52:04.7450 p.m.,-9.47,4.25,13.1,6.93,-2.9,4.8
2022-02-17 5:52:04.7550 p.m.,-8.58,4.49,11.68,7.42,-2.98,5.16
2022-02-17 5:52:04.7650 p.m.,-8.23,4.59,10.32,7.54,-3.04,5.13
2022-02-17 5:52:04.7750 p.m.,-7.23,4.44,7.53,7.89,-3.33,4.72
2022-02-17 5:52:04.7850 p.m.,-6.05,3.36,6.46,8.31,-3.2,3.98
2022-02-17 5:52:04.7950 p.m.,-5.63,1.8,5.17,8.54,-2.61,3.08
2022-02-17 5:52:04.8050 p.m.,-6.29,-0.17,3.27,8.65,-2.31,2.24
2022-02-17 5:52:04.8150 p.m.,-5.7,-2.02,2.69,8.33,-2.85,1.62
2022-02-17 5:52:04.8250 p.m.,-3.47,-3.36,4.55,7.5,-4.04,1.27
2022-02-17 5:52:04.8350 p.m.,-0.16,-4.02,7.23,6.28,-5.25,1.32
2022-02-17 5:52:04.8450 p.m.,3.42,-4.6,8.77,5.33,-5.28,1.6
2022-02-17 5:52:04.8550 p.m.,6.62,-5.24,6.83,4.74,-4.26,2.06
2022-02-17 5:52:04.8650 p.m.,8.51,-5.54,1.82,4.4,-2.92,2.49
2022-02-17 5:52:04.8750 p.m.,9.1,-4.67,-1.97,4.26,-1.72,2.52
2022-02-17 5:52:04.8850 p.m.,5.04,-2.47,-3.61,4.41,-0.88,2.18
2022-02-17 5:52:04.8960 p.m.,-0.22,0.97,-3.87,4.75,-0.31,1.28
2022-02-17 5:52:04.9060 p.m.,-3.79,2.4,-2.33,4.52,-0.01,0.12
2022-02-17 5:52:04.9160 p.m.,-6.05,-0.18,0.06,3.73,-0.49,-0.87
2022-02-17 5:52:04.9260 p.m.,-6.29,-1.92,3.04,2.43,-1.49,-1.2
2022-02-17 5:52:04.9360 p.m.,-3.75,-2.79,7.32,0.87,-2.59,-0.84
2022-02-17 5:52:04.9460 p.m.,1.71,-4.21,10.95,-0.12,-3.61,-0.4
2022-02-17 5:52:04.9560 p.m.,6.03,-6.23,11.42,-0.35,-4.35,-0.16
2022-02-17 5:52:04.9660 p.m.,7.98,-7.49,8.29,-0.29,-4.31,0.06
2022-02-17 5:52:04.9760 p.m.,8.07,-6.4,3.6,-0.32,-3.62,0.27
2022-02-17 5:52:04.9860 p.m.,6.56,-3.65,-0.46,-0.43,-3.01,0.32
2022-02-17 5:52:04.9960 p.m.,3.54,-0.85,-2.58,-0.56,-2.41,0.2
2022-02-17 5:52:05.0060 p.m.,0.83,1.24,-3.56,-0.69,-1.84,-0.11
2022-02-17 5:52:05.0160 p.m.,-1.58,2.79,-3.72,-0.84,-1.04,-0.33
2022-02-17 5:52:05.0260 p.m.,-3.22,4.42,-3.14,-0.91,0.01,-0.49
2022-02-17 5:52:05.0360 p.m.,-3.99,5.76,-2.55,-0.55,1.05,-0.93
2022-02-17 5:52:05.0460 p.m.,-5.69,5.94,-2.87,0.4,2.05,-1.65
2022-02-17 5:52:05.0560 p.m.,-7.61,5.04,-3.0,1.55,3.21,-2.05
2022-02-17 5:52:05.0660 p.m.,-8.16,4.6,-2.15,2.3,4.52,-1.72
2022-02-17 5:52:05.0760 p.m.,-7.55,3.68,0.29,2.42,4.87,-1.17
2022-02-17 5:52:05.0860 p.m.,-7.45,1.26,4.94,1.99,4.08,-0.92
2022-02-17 5:52:05.0960 p.m.,-8.35,-2.02,10.82,1.32,2.18,-0.83
2022-02-17 5:52:05.1070 p.m.,-7.9,-4.99,15.08,0.88,-0.44,-0.53
2022-02-17 5:52:05.1170 p.m.,-4.48,-4.82,16.76,0.66,-2.92,-0.04
2022-02-17 5:52:05.1270 p.m.,-0.61,-2.74,15.53,0.86,-4.75,0.43
2022-02-17 5:52:05.1360 p.m.,1.85,-1.16,11.72,1.55,-5.83,0.8
2022-02-17 5:52:05.1470 p.m.,5.06,0.08,6.72,2.61,-6.04,1.03
2022-02-17 5:52:05.1560 p.m.,8.16,0.36,0.71,8.49,3.16,-2.65
2022-02-17 5:52:05.1670 p.m.,16.03,-8.52,-13.67,8.12,3.01,0.64
2022-02-17 5:52:05.1770 p.m.,17.48,2.56,-11.01,7.38,2.26,3.43
2022-02-17 5:52:05.1870 p.m.,10.98,13.33,-0.64,6.45,1.48,5.1
2022-02-17 5:52:05.1970 p.m.,7.46,8.44,-1.76,5.18,0.88,5.25
2022-02-17 5:52:05.2070 p.m.,3.13,3.84,-1.29,5.13,4.88,1.0
2022-02-17 5:52:05.2170 p.m.,2.04,-5.87,-7.24,1.46,4.22,-0.33
2022-02-17 5:52:05.2270 p.m.,3.87,-4.56,1.16,-1.06,7.76,-1.11
2022-02-17 5:52:05.2370 p.m.,5.64,0.84,3.7,-2.08,7.33,-1.8
2022-02-17 5:52:05.2470 p.m.,4.39,2.69,12.4,-2.1,6.54,-2.18
2022-02-17 5:52:05.2570 p.m.,-0.15,3.3,7.04,-0.56,4.03,-2.08
2022-02-17 5:52:05.2670 p.m.,-0.69,3.11,2.36,0.74,1.43,-1.68
2022-02-17 5:52:05.2770 p.m.,-0.73,3.23,1.28,0.17,0.93,-1.61
2022-02-17 5:52:05.2870 p.m.,-4.66,1.5,8.44,-1.11,1.69,-1.77
2022-02-17 5:52:05.2970 p.m.,-7.89,-1.35,10.3,-1.75,2.08,-1.79
2022-02-17 5:52:05.3070 p.m.,-7.64,-2.92,6.66,-1.57,1.56,-1.45
2022-02-17 5:52:05.3180 p.m.,-4.8,-1.97,3.57,-1.01,0.75,-1.05
2022-02-17 5:52:05.3270 p.m.,-3.03,-1.32,1.06,-0.44,-0.22,-0.75
2022-02-17 5:52:05.3370 p.m.,-2.14,-1.99,0.13,0.04,-1.51,-0.71
2022-02-17 5:52:05.3470 p.m.,-1.26,-2.6,1.69,0.49,-3.05,-0.84
2022-02-17 5:52:05.3570 p.m.,-0.63,-2.41,3.86,0.82,-4.39,-0.75
2022-02-17 5:52:05.3680 p.m.,0.3,-1.19,4.53,0.95,-4.99,-0.38
2022-02-17 5:52:05.3770 p.m.,1.09,0.08,3.19,0.92,-4.77,-0.05
2022-02-17 5:52:05.3880 p.m.,1.02,0.16,0.35,0.7,-4.02,0.06
2022-02-17 5:52:05.3980 p.m.,0.21,-0.39,-1.71,0.36,-2.98,0.06
2022-02-17 5:52:05.4080 p.m.,0.32,-0.79,-2.62,-0.01,-1.95,0.01
2022-02-17 5:52:05.4180 p.m.,0.89,-0.98,-3.13,-0.4,-1.03,-0.09
2022-02-17 5:52:05.4280 p.m.,1.96,-1.16,-3.12,-0.78,-0.33,-0.28
2022-02-17 5:52:05.4380 p.m.,2.76,-1.07,-2.75,-1.09,0.15,-0.55
2022-02-17 5:52:05.4480 p.m.,2.8,-0.96,-2.08,-1.33,0.36,-0.81
2022-02-17 5:52:05.4580 p.m.,1.94,-0.82,-1.42,-1.32,0.69,-0.98
2022-02-17 5:52:05.4680 p.m.,0.35,-0.53,-1.38,-1.14,0.88,-1.02
2022-02-17 5:52:05.4780 p.m.,-1.15,-0.38,-2.54,-0.72,1.15,-0.91
2022-02-17 5:52:05.4880 p.m.,-2.06,-0.21,-2.57,-0.22,1.15,-0.67
2022-02-17 5:52:05.4980 p.m.,-2.24,-0.09,-3.67,0.32,1.16,-0.44
2022-02-17 5:52:05.5080 p.m.,-2.09,0.06,-2.66,0.68,1.05,-0.3
2022-02-17 5:52:05.5180 p.m.,-1.72,0.23,-2.34,0.85,1.09,-0.28
2022-02-17 5:52:05.5280 p.m.,-1.32,0.52,-1.4,0.83,1.21,-0.29
2022-02-17 5:52:05.5380 p.m.,-0.5,0.37,-0.65,0.66,1.29,-0.32
2022-02-17 5:52:05.5480 p.m.,0.58,-0.03,0.42,0.39,1.27,-0.35
2022-02-17 5:52:05.5580 p.m.,1.33,-0.15,1.64,0.09,1.14,-0.39
2022-02-17 5:52:05.5680 p.m.,1.61,-0.39,2.73,-0.19,0.89,-0.47
2022-02-17 5:52:05.5780 p.m.,1.52,-0.68,3.32,-0.39,0.69,-0.56
2022-02-17 5:52:05.5880 p.m.,1.26,-0.81,2.93,-0.54,0.69,-0.61
2022-02-17 5:52:05.5990 p.m.,0.95,-0.54,1.73,-0.74,1.02,-0.68
2022-02-17 5:52:05.6090 p.m.,0.76,-0.12,0.23,-0.96,1.64,-0.69
2022-02-17 5:52:05.6180 p.m.,0.65,0.22,-1.31,-1.01,2.27,-0.61
2022-02-17 5:52:05.6280 p.m.,0.59,0.58,-2.49,-0.77,2.52,-0.49
