time,ax,ay,az,wx,wy,wz
2022-02-17 5:50:23.2700 p.m.,-0.15,0.09,0.69,-0.38,-0.28,-0.06
2022-02-17 5:50:23.2750 p.m.,-0.04,-0.02,-0.23,-0.3,-0.09,-0.06
2022-02-17 5:50:23.2850 p.m.,-0.02,0.08,-0.86,-0.16,0.08,-0.06
2022-02-17 5:50:23.2950 p.m.,-0.01,0.16,-1.08,-0.01,0.17,-0.04
2022-02-17 5:50:23.3050 p.m.,-0.14,0.09,-0.48,-0.01,0.17,-0.04
2022-02-17 5:50:23.3160 p.m.,-0.14,0.09,-0.48,0.2,0.14,0.01
2022-02-17 5:50:23.3260 p.m.,-0.25,0.11,-0.11,0.21,0.03,0.01
2022-02-17 5:50:23.3360 p.m.,-0.32,0.07,0.27,0.15,-0.09,0.01
2022-02-17 5:50:23.3470 p.m.,-0.36,0.08,0.58,0.06,-0.19,0.02
2022-02-17 5:50:23.3570 p.m.,-0.38,0.13,0.75,-0.04,-0.28,0.01
2022-02-17 5:50:23.3670 p.m.,-0.34,0.14,0.76,-0.12,-0.29,0.01
2022-02-17 5:50:23.3760 p.m.,-0.3,0.17,0.6,-0.15,-0.27,0.0
2022-02-17 5:50:23.3870 p.m.,-0.19,0.18,0.29,-0.11,-0.21,0.01
2022-02-17 5:50:23.3970 p.m.,-0.13,0.2,-0.02,-0.05,-0.14,0.01
2022-02-17 5:50:23.4060 p.m.,-0.09,0.19,-0.26,0.04,-0.07,0.03
2022-02-17 5:50:23.4170 p.m.,-0.09,0.17,-0.39,0.1,-0.02,0.04
2022-02-17 5:50:23.4260 p.m.,-0.1,0.17,-0.45,0.12,0.0,0.06
2022-02-17 5:50:23.4370 p.m.,-0.1,0.11,-0.38,0.11,-0.0,0.06
2022-02-17 5:50:23.4470 p.m.,-0.13,0.11,-0.19,0.07,-0.03,0.06
2022-02-17 5:50:23.4570 p.m.,-0.14,0.06,-0.05,0.03,-0.08,0.05
2022-02-17 5:50:23.4680 p.m.,-0.2,0.11,-0.11,-0.02,-0.1,0.05
2022-02-17 5:50:23.4780 p.m.,-0.2,0.11,-0.11,-0.06,-0.12,0.05
2022-02-17 5:50:23.4870 p.m.,-0.29,0.19,-0.15,-0.1,-0.13,0.05
2022-02-17 5:50:23.4970 p.m.,-0.24,0.17,-0.14,-0.13,-0.12,0.06
2022-02-17 5:50:23.5060 p.m.,-0.2,0.17,-0.11,-0.14,-0.11,0.06
2022-02-17 5:50:23.5170 p.m.,-0.15,0.14,-0.03,-0.12,-0.08,0.07
2022-02-17 5:50:23.5270 p.m.,-0.11,0.12,0.01,-0.07,-0.07,0.08
2022-02-17 5:50:23.5370 p.m.,-0.08,0.08,-0.01,0.0,-0.07,0.09
2022-02-17 5:50:23.5470 p.m.,-0.1,0.04,0.0,0.07,-0.06,0.09
2022-02-17 5:50:23.5570 p.m.,-0.14,0.03,0.01,0.1,-0.05,0.1
2022-02-17 5:50:23.5670 p.m.,-0.13,0.07,-0.02,0.09,-0.04,0.09
2022-02-17 5:50:23.5770 p.m.,-0.12,0.08,0.05,0.05,-0.03,0.09
2022-02-17 5:50:23.5870 p.m.,-0.15,0.11,0.21,-0.0,-0.04,0.09
2022-02-17 5:50:23.5970 p.m.,-0.2,0.13,0.32,-0.04,-0.07,0.07
2022-02-17 5:50:23.6070 p.m.,-0.21,0.12,0.27,-0.06,-0.08,0.07
2022-02-17 5:50:23.6180 p.m.,-0.19,0.15,0.07,-0.07,-0.11,0.06
2022-02-17 5:50:23.6270 p.m.,-0.26,0.14,0.0,-0.06,-0.14,0.06
2022-02-17 5:50:23.6380 p.m.,-0.31,0.14,-0.03,-0.06,-0.14,0.06
2022-02-17 5:50:23.6470 p.m.,-0.3,0.13,-0.15,-0.05,-0.11,0.06
2022-02-17 5:50:23.6570 p.m.,-0.32,0.15,-0.2,-0.05,-0.07,0.05
2022-02-17 5:50:23.6670 p.m.,-0.34,0.21,-0.17,-0.04,-0.04,0.07
2022-02-17 5:50:23.6770 p.m.,-0.36,0.26,-0.23,-0.04,0.0,0.09
2022-02-17 5:50:23.6880 p.m.,-0.45,0.38,-0.27,-0.02,0.03,0.1
2022-02-17 5:50:23.6980 p.m.,-0.5,0.34,-0.17,-0.02,0.04,0.11
2022-02-17 5:50:23.7070 p.m.,-0.56,0.28,-0.14,-0.03,0.02,0.11
2022-02-17 5:50:23.7180 p.m.,-0.71,0.2,-0.07,-0.06,-0.02,0.13
2022-02-17 5:50:23.7270 p.m.,-0.85,0.19,0.05,-0.1,-0.07,0.17
2022-02-17 5:50:23.7380 p.m.,-0.9,0.56,0.09,-0.14,-0.12,0.2
2022-02-17 5:50:23.7480 p.m.,-1.13,0.62,0.11,-0.15,-0.14,0.22
2022-02-17 5:50:23.7580 p.m.,-1.26,0.57,0.07,-0.12,-0.15,0.25
2022-02-17 5:50:23.7680 p.m.,-1.31,0.55,-0.08,-0.06,-0.15,0.28
2022-02-17 5:50:23.7780 p.m.,-1.32,0.59,-0.22,-0.0,-0.12,0.3
2022-02-17 5:50:23.7880 p.m.,-1.35,0.6,-0.36,0.04,-0.06,0.35
2022-02-17 5:50:23.7980 p.m.,-1.34,0.64,-0.48,0.04,-0.0,0.38
2022-02-17 5:50:23.8080 p.m.,-1.29,0.7,-0.49,0.02,0.08,0.41
2022-02-17 5:50:23.8180 p.m.,-1.28,0.66,-0.51,-0.01,0.15,0.42
2022-02-17 5:50:23.8280 p.m.,-1.28,0.56,-0.51,-0.03,0.19,0.42
2022-02-17 5:50:23.8380 p.m.,-1.27,0.46,-0.4,-0.04,0.21,0.41
2022-02-17 5:50:23.8480 p.m.,-1.28,0.33,-0.24,-0.04,0.19,0.4
2022-02-17 5:50:23.8580 p.m.,-1.3,0.23,-0.07,-0.04,0.13,0.39
2022-02-17 5:50:23.8680 p.m.,-1.33,0.2,0.07,-0.04,0.09,0.39
2022-02-17 5:50:23.8790 p.m.,-1.3,0.23,0.1,-0.05,0.08,0.41
2022-02-17 5:50:23.8880 p.m.,-1.22,0.32,0.02,-0.04,0.1,0.42
2022-02-17 5:50:23.8980 p.m.,-1.15,0.34,-0.09,-0.0,0.12,0.42
2022-02-17 5:50:23.9080 p.m.,-1.08,0.24,-0.13,0.04,0.15,0.41
2022-02-17 5:50:23.9180 p.m.,-1.0,0.15,-0.22,0.09,0.2,0.41
2022-02-17 5:50:23.9280 p.m.,-0.82,0.11,-0.33,0.12,0.24,0.4
2022-02-17 5:50:23.9390 p.m.,-0.7,0.11,-0.38,0.12,0.24,0.4
2022-02-17 5:50:23.9490 p.m.,-0.65,0.1,-0.37,0.09,0.24,0.4
2022-02-17 5:50:23.9590 p.m.,-0.56,0.11,-0.34,0.05,0.21,0.39
2022-02-17 5:50:23.9690 p.m.,-0.49,0.12,-0.26,0.02,0.18,0.37
2022-02-17 5:50:23.9790 p.m.,-0.41,0.09,-0.21,-0.0,0.17,0.37
2022-02-17 5:50:23.9890 p.m.,-0.34,0.07,-0.25,-0.0,0.19,0.35
2022-02-17 5:50:23.9990 p.m.,-0.23,0.06,-0.37,-0.0,0.22,0.33
2022-02-17 5:50:24.0090 p.m.,-0.08,0.24,-0.43,0.0,0.26,0.33
2022-02-17 5:50:24.0190 p.m.,-0.08,0.24,-0.43,0.02,0.29,0.34
2022-02-17 5:50:24.0290 p.m.,0.0,0.3,-0.37,0.08,0.26,0.37
2022-02-17 5:50:24.0390 p.m.,0.01,0.35,-0.19,0.14,0.22,0.41
2022-02-17 5:50:24.0490 p.m.,-0.07,0.36,0.06,0.25,0.22,0.46
2022-02-17 5:50:24.0590 p.m.,-0.08,0.39,0.14,0.37,0.26,0.51
2022-02-17 5:50:24.0690 p.m.,-0.05,0.42,0.13,0.45,0.32,0.55
2022-02-17 5:50:24.0790 p.m.,-0.03,0.3,0.11,0.46,0.38,0.56
2022-02-17 5:50:24.0890 p.m.,0.05,0.2,0.16,0.41,0.48,0.56
2022-02-17 5:50:24.1000 p.m.,0.15,0.14,0.2,0.32,0.5,0.56
2022-02-17 5:50:24.1090 p.m.,0.08,0.06,0.38,0.26,0.41,0.55
2022-02-17 5:50:24.1190 p.m.,0.23,0.12,0.65,0.24,0.31,0.54
2022-02-17 5:50:24.1300 p.m.,0.24,0.19,0.74,0.27,0.25,0.56
2022-02-17 5:50:24.1400 p.m.,0.15,0.14,0.53,0.3,0.24,0.62
2022-02-17 5:50:24.1490 p.m.,0.22,0.11,0.17,0.29,0.28,0.67
2022-02-17 5:50:24.1600 p.m.,0.39,0.11,-0.14,0.25,0.33,0.72
2022-02-17 5:50:24.1690 p.m.,0.41,0.09,-0.37,0.17,0.36,0.72
2022-02-17 5:50:24.1800 p.m.,0.53,0.29,-0.51,0.09,0.41,0.7
2022-02-17 5:50:24.1900 p.m.,0.62,0.5,-0.58,-0.02,0.42,0.68
2022-02-17 5:50:24.2000 p.m.,0.7,0.57,-0.49,-0.16,0.38,0.66
2022-02-17 5:50:24.2100 p.m.,0.66,0.37,-0.31,-0.33,0.29,0.64
2022-02-17 5:50:24.2200 p.m.,0.5,0.15,0.01,-0.51,0.27,0.63
2022-02-17 5:50:24.2300 p.m.,0.5,0.1,-0.03,-0.69,0.32,0.64
2022-02-17 5:50:24.2400 p.m.,0.65,0.12,-0.37,-0.85,0.37,0.66
2022-02-17 5:50:24.2500 p.m.,0.66,0.22,-0.59,-0.9,0.38,0.68
2022-02-17 5:50:24.2600 p.m.,0.6,0.45,-0.56,-0.81,0.34,0.72
2022-02-17 5:50:24.2700 p.m.,0.57,0.78,-0.52,-0.59,0.37,0.77
2022-02-17 5:50:24.2800 p.m.,0.57,0.9,-0.64,-0.33,0.45,0.85
2022-02-17 5:50:24.2900 p.m.,0.71,0.96,-0.96,-0.11,0.52,0.87
2022-02-17 5:50:24.3000 p.m.,0.86,0.74,-0.98,0.01,0.53,0.8
2022-02-17 5:50:24.3100 p.m.,0.69,0.22,-0.74,0.01,0.51,0.69
2022-02-17 5:50:24.3200 p.m.,0.59,-0.14,-0.4,-0.06,0.48,0.58
2022-02-17 5:50:24.3300 p.m.,0.71,-0.09,-0.26,-0.17,0.43,0.49
2022-02-17 5:50:24.3400 p.m.,0.78,0.2,-0.21,-0.23,0.37,0.44
2022-02-17 5:50:24.3510 p.m.,0.8,0.55,-0.12,-0.24,0.28,0.44
2022-02-17 5:50:24.3600 p.m.,0.79,0.87,-0.03,-0.24,0.2,0.46
2022-02-17 5:50:24.3710 p.m.,0.76,0.96,-0.04,-0.24,0.13,0.48
2022-02-17 5:50:24.3810 p.m.,0.72,0.93,-0.01,-0.26,0.09,0.49
2022-02-17 5:50:24.3900 p.m.,0.51,0.83,0.05,-0.26,0.1,0.5
2022-02-17 5:50:24.4000 p.m.,0.42,0.79,-0.04,-0.26,0.12,0.48
2022-02-17 5:50:24.4110 p.m.,0.49,0.54,-0.24,-0.25,0.14,0.45
2022-02-17 5:50:24.4210 p.m.,0.49,0.54,-0.24,-0.24,0.15,0.42
2022-02-17 5:50:24.4310 p.m.,0.44,0.67,-0.07,-0.23,0.15,0.43
2022-02-17 5:50:24.4410 p.m.,0.25,0.75,-0.12,-0.27,0.12,0.45
2022-02-17 5:50:24.4510 p.m.,0.23,0.78,-0.14,-0.31,0.06,0.46
2022-02-17 5:50:24.4610 p.m.,0.22,0.91,0.12,-0.29,-0.03,0.45
2022-02-17 5:50:24.4710 p.m.,0.22,0.8,0.12,-0.2,-0.06,0.43
2022-02-17 5:50:24.4810 p.m.,0.31,0.73,-0.07,-0.09,-0.03,0.4
2022-02-17 5:50:24.4910 p.m.,0.35,0.75,-0.35,0.01,0.05,0.39
2022-02-17 5:50:24.5010 p.m.,0.4,0.77,-0.61,0.09,0.17,0.41
2022-02-17 5:50:24.5110 p.m.,0.4,0.95,-0.86,0.12,0.3,0.44
2022-02-17 5:50:24.5210 p.m.,0.34,1.12,-0.9,0.12,0.43,0.47
2022-02-17 5:50:24.5310 p.m.,0.23,1.17,-0.79,0.12,0.43,0.47
2022-02-17 5:50:24.5410 p.m.,0.16,1.17,-0.65,0.09,0.66,0.43
2022-02-17 5:50:24.5510 p.m.,0.11,1.05,-0.52,0.08,0.77,0.35
2022-02-17 5:50:24.5580 p.m.,0.07,0.92,-0.51,0.1,0.84,0.26
2022-02-17 5:50:24.5690 p.m.,0.05,0.85,-0.49,0.11,0.86,0.17
2022-02-17 5:50:24.5820 p.m.,-0.06,0.82,-0.57,0.12,0.81,0.12
2022-02-17 5:50:24.5920 p.m.,-0.07,0.86,-0.65,0.09,0.72,0.16
2022-02-17 5:50:24.6020 p.m.,0.28,1.06,-0.52,0.03,0.7,0.25
2022-02-17 5:50:24.6110 p.m.,0.69,1.39,-0.36,-0.03,0.72,0.36
2022-02-17 5:50:24.6220 p.m.,0.62,1.52,-0.22,-0.06,0.74,0.42
2022-02-17 5:50:24.6320 p.m.,0.31,1.46,0.01,-0.06,0.74,0.42
2022-02-17 5:50:24.6420 p.m.,-0.22,1.08,-0.07,-0.05,0.7,0.35
2022-02-17 5:50:24.6520 p.m.,-0.22,1.08,-0.07,-0.01,0.61,0.22
2022-02-17 5:50:24.6620 p.m.,-0.18,0.83,-0.23,0.07,0.5,0.01
2022-02-17 5:50:24.6720 p.m.,-0.2,0.52,-0.22,0.18,0.37,-0.21
2022-02-17 5:50:24.6830 p.m.,-0.24,0.19,-0.26,0.29,0.3,-0.35
2022-02-17 5:50:24.6920 p.m.,0.08,0.24,-0.21,0.41,0.34,-0.47
2022-02-17 5:50:24.7030 p.m.,0.08,0.24,-0.21,0.57,0.64,-0.73
2022-02-17 5:50:24.7120 p.m.,-0.46,-0.23,-1.01,0.65,0.81,-0.84
2022-02-17 5:50:24.7230 p.m.,-0.46,-0.23,-1.01,0.52,0.94,-0.6
2022-02-17 5:50:24.7330 p.m.,0.65,1.88,0.81,0.33,0.93,-0.24
2022-02-17 5:50:24.7420 p.m.,1.54,3.01,1.82,0.2,0.9,0.12
2022-02-17 5:50:24.7530 p.m.,1.58,2.64,1.68,0.12,0.89,0.39
2022-02-17 5:50:24.7630 p.m.,1.05,1.9,1.38,0.08,0.87,0.51
2022-02-17 5:50:24.7730 p.m.,-0.94,1.05,1.46,0.05,0.75,0.54
2022-02-17 5:50:24.7830 p.m.,-1.22,0.47,2.44,-0.03,0.34,0.47
2022-02-17 5:50:24.7930 p.m.,-1.22,0.47,2.44,-0.05,-0.06,0.35
2022-02-17 5:50:24.8030 p.m.,-1.1,-0.04,2.93,-0.06,-0.32,0.25
2022-02-17 5:50:24.8120 p.m.,-0.6,0.05,1.9,-0.09,-0.46,0.18
2022-02-17 5:50:24.8230 p.m.,-0.6,0.05,1.9,-0.09,-0.46,0.1497873663902282
2022-02-17 5:50:24.8330 p.m.,-0.3,0.19,1.38,-0.14,-0.34,0.17
2022-02-17 5:50:24.8430 p.m.,0.04,0.37,0.73,-0.19,-0.14,0.25
2022-02-17 5:50:24.8520 p.m.,0.05,0.49,0.31,-0.24,0.13,0.35
2022-02-17 5:50:24.8630 p.m.,-0.01,0.65,-0.13,-0.29,0.38,0.46
2022-02-17 5:50:24.8730 p.m.,-0.07,0.32,0.05,-0.36,0.51,0.55
2022-02-17 5:50:24.8840 p.m.,-0.07,0.32,0.05,-0.41,0.49,0.59
2022-02-17 5:50:24.8930 p.m.,-0.26,-0.02,0.42,-0.43,0.39,0.59
2022-02-17 5:50:24.9020 p.m.,-0.58,-0.4,0.72,-0.42,0.24,0.59
2022-02-17 5:50:24.9130 p.m.,-0.69,-0.74,0.83,-0.34,0.07,0.59
2022-02-17 5:50:24.9230 p.m.,-0.51,-0.74,0.67,-0.22,-0.06,0.61
2022-02-17 5:50:24.9330 p.m.,-0.33,-0.66,0.27,-0.07,-0.14,0.62
2022-02-17 5:50:24.9430 p.m.,-0.27,-0.66,-0.12,0.08,-0.14,0.63
2022-02-17 5:50:24.9530 p.m.,-0.21,-0.59,-0.54,0.2,-0.02,0.65
2022-02-17 5:50:24.9630 p.m.,0.02,-0.45,-0.93,0.27,0.14,0.66
2022-02-17 5:50:24.9730 p.m.,0.15,-0.38,-1.17,0.3,0.29,0.64
2022-02-17 5:50:24.9830 p.m.,0.13,-0.38,-1.19,0.28,0.42,0.62
2022-02-17 5:50:24.9930 p.m.,0.0,-0.35,-1.03,0.23,0.5,0.6
2022-02-17 5:50:25.0030 p.m.,-0.13,-0.29,-0.81,0.15,0.52,0.6
2022-02-17 5:50:25.0130 p.m.,-0.42,-0.27,-0.48,0.03,0.48,0.64
2022-02-17 5:50:25.0230 p.m.,-0.79,-0.16,-0.02,-0.11,0.43,0.71
2022-02-17 5:50:25.0330 p.m.,-0.97,0.07,0.4,-0.25,0.39,0.81
2022-02-17 5:50:25.0430 p.m.,-0.91,0.19,0.68,-0.36,0.34,0.89
2022-02-17 5:50:25.0530 p.m.,-0.86,0.03,0.8,-0.44,0.24,0.94
2022-02-17 5:50:25.0640 p.m.,-0.78,-0.25,0.97,-0.46,0.07,0.92
2022-02-17 5:50:25.0730 p.m.,-0.75,-0.57,1.08,-0.42,-0.11,0.87
2022-02-17 5:50:25.0840 p.m.,-0.76,-0.88,0.83,-0.34,-0.24,0.81
2022-02-17 5:50:25.0940 p.m.,-0.62,-0.95,0.39,-0.26,-0.27,0.75
2022-02-17 5:50:25.1030 p.m.,-0.32,-0.85,-0.27,-0.17,-0.2,0.7
2022-02-17 5:50:25.1130 p.m.,-0.05,-0.7,-0.96,-0.09,-0.08,0.65
2022-02-17 5:50:25.1240 p.m.,0.11,-0.55,-1.4,-0.03,0.04,0.6
2022-02-17 5:50:25.1330 p.m.,0.19,-0.35,-1.62,0.01,0.1,0.58
2022-02-17 5:50:25.1440 p.m.,0.17,-0.12,-1.68,0.01,0.12,0.58
2022-02-17 5:50:25.1540 p.m.,0.13,0.11,-1.44,-0.02,0.08,0.57
2022-02-17 5:50:25.1640 p.m.,0.06,0.29,-1.14,-0.05,0.03,0.56
2022-02-17 5:50:25.1740 p.m.,0.02,0.36,-0.92,-0.04,-0.04,0.53
2022-02-17 5:50:25.1840 p.m.,-0.11,0.29,-0.87,-0.03,-0.07,0.49
2022-02-17 5:50:25.1940 p.m.,-0.22,0.3,-1.04,-0.03,-0.01,0.47
2022-02-17 5:50:25.2040 p.m.,-0.17,0.44,-1.22,-0.05,0.1,0.46
2022-02-17 5:50:25.2140 p.m.,-0.14,0.63,-1.39,-0.06,0.19,0.47
2022-02-17 5:50:25.2240 p.m.,-0.14,0.75,-1.37,-0.05,0.21,0.46
2022-02-17 5:50:25.2340 p.m.,-0.26,0.72,-1.19,-0.04,0.17,0.42
2022-02-17 5:50:25.2440 p.m.,-0.41,0.61,-0.97,-0.03,0.1,0.39
2022-02-17 5:50:25.2540 p.m.,-0.42,0.56,-0.82,-0.01,0.02,0.37
2022-02-17 5:50:25.2650 p.m.,-0.39,0.63,-0.74,0.02,-0.08,0.36
2022-02-17 5:50:25.2740 p.m.,-0.42,0.67,-0.78,0.04,-0.15,0.34
2022-02-17 5:50:25.2840 p.m.,-0.4,0.75,-0.89,0.04,-0.2,0.32
2022-02-17 5:50:25.2940 p.m.,-0.32,0.84,-1.07,0.02,-0.22,0.29
2022-02-17 5:50:25.3050 p.m.,-0.28,0.86,-1.26,0.0,-0.2,0.25
2022-02-17 5:50:25.3140 p.m.,-0.18,0.87,-1.47,-0.02,-0.15,0.2
2022-02-17 5:50:25.3250 p.m.,-0.05,0.91,-1.7,-0.04,-0.1,0.15
2022-02-17 5:50:25.3340 p.m.,0.09,0.98,-1.83,-0.04,-0.08,0.1
2022-02-17 5:50:25.3450 p.m.,0.17,1.01,-1.75,-0.03,-0.11,0.04
2022-02-17 5:50:25.3540 p.m.,0.22,1.04,-1.54,-0.02,-0.15,-0.01
2022-02-17 5:50:25.3650 p.m.,0.25,1.05,-1.31,0.0,-0.19,-0.04
2022-02-17 5:50:25.3750 p.m.,0.24,1.09,-1.06,0.01,-0.19,-0.05
2022-02-17 5:50:25.3850 p.m.,0.19,1.1,-0.86,0.03,-0.17,-0.04
2022-02-17 5:50:25.3950 p.m.,0.22,1.14,-0.54,0.07,-0.16,-0.05
2022-02-17 5:50:25.4050 p.m.,0.23,1.12,-0.23,0.13,-0.17,-0.09
2022-02-17 5:50:25.4150 p.m.,0.22,0.97,0.14,0.19,-0.18,-0.16
2022-02-17 5:50:25.4250 p.m.,0.2,0.79,0.47,0.24,-0.17,-0.21
2022-02-17 5:50:25.4350 p.m.,0.17,0.72,0.78,0.24,-0.12,-0.26
2022-02-17 5:50:25.4450 p.m.,0.1,0.74,1.04,0.23,-0.07,-0.27
2022-02-17 5:50:25.4550 p.m.,0.16,0.88,1.33,0.24,-0.12,-0.24
2022-02-17 5:50:25.4650 p.m.,0.17,1.21,2.06,0.28,-0.23,-0.23
2022-02-17 5:50:25.4750 p.m.,0.17,1.21,2.06,0.32,-0.35,-0.22
2022-02-17 5:50:25.4850 p.m.,0.24,1.18,2.08,0.29,-0.4,-0.25
2022-02-17 5:50:25.4950 p.m.,0.41,1.06,1.98,0.19,-0.4,-0.29
2022-02-17 5:50:25.5050 p.m.,0.51,0.99,1.94,0.03,-0.36,-0.3
2022-02-17 5:50:25.5160 p.m.,0.64,1.11,2.01,-0.17,-0.29,-0.3
2022-02-17 5:50:25.5250 p.m.,0.75,1.31,2.12,-0.35,-0.18,-0.31
2022-02-17 5:50:25.5360 p.m.,0.64,1.3,2.2,-0.47,-0.06,-0.3
2022-02-17 5:50:25.5450 p.m.,0.4,1.08,2.18,-0.53,0.02,-0.27
2022-02-17 5:50:25.5560 p.m.,0.1,0.8,2.25,-0.56,0.07,-0.24
2022-02-17 5:50:25.5660 p.m.,-0.22,0.52,2.51,-0.55,0.04,-0.21
2022-02-17 5:50:25.5760 p.m.,-0.48,0.21,2.76,-0.49,-0.05,-0.2
2022-02-17 5:50:25.5860 p.m.,-0.65,-0.18,2.87,-0.39,-0.2,-0.23
2022-02-17 5:50:25.5960 p.m.,-0.78,-0.65,2.88,-0.25,-0.37,-0.28
2022-02-17 5:50:25.6060 p.m.,-0.74,-0.98,2.72,-0.06,-0.51,-0.35
2022-02-17 5:50:25.6160 p.m.,-0.59,-1.11,2.25,0.14,-0.57,-0.41
2022-02-17 5:50:25.6260 p.m.,-0.45,-1.2,1.51,0.33,-0.53,-0.46
2022-02-17 5:50:25.6360 p.m.,-0.27,-1.13,0.82,0.49,-0.43,-0.48
2022-02-17 5:50:25.6460 p.m.,-0.07,-0.98,0.21,0.6,-0.3,-0.5
2022-02-17 5:50:25.6560 p.m.,0.05,-0.88,-0.28,0.67,-0.15,-0.52
2022-02-17 5:50:25.6660 p.m.,0.17,-0.82,-0.57,0.72,-0.04,-0.56
2022-02-17 5:50:25.6760 p.m.,0.18,-0.8,-0.76,0.74,0.0,-0.57
2022-02-17 5:50:25.6860 p.m.,0.16,-0.75,-0.83,0.74,0.02,-0.57
2022-02-17 5:50:25.6960 p.m.,0.14,-0.64,-0.79,0.71,0.03,-0.56
2022-02-17 5:50:25.7060 p.m.,0.13,-0.48,-0.8,0.67,0.03,-0.53
2022-02-17 5:50:25.7160 p.m.,0.17,-0.38,-0.88,0.61,0.05,-0.48
2022-02-17 5:50:25.7260 p.m.,0.15,-0.33,-0.95,0.53,0.09,-0.42
2022-02-17 5:50:25.7370 p.m.,0.11,-0.24,-0.97,0.46,0.15,-0.34
2022-02-17 5:50:25.7460 p.m.,0.11,-0.16,-1.0,0.37,0.2,-0.26
2022-02-17 5:50:25.7560 p.m.,0.11,-0.16,-0.95,0.26,0.21,-0.19
2022-02-17 5:50:25.7660 p.m.,0.08,-0.22,-0.75,0.14,0.17,-0.13
2022-02-17 5:50:25.7760 p.m.,-0.04,-0.36,-0.48,0.06,0.09,-0.07
2022-02-17 5:50:25.7870 p.m.,-0.1,-0.47,-0.27,0.03,-0.03,-0.02
2022-02-17 5:50:25.7970 p.m.,-0.16,-0.6,-0.17,0.03,-0.15,0.02
2022-02-17 5:50:25.8070 p.m.,-0.24,-0.76,-0.26,0.04,-0.21,0.04
2022-02-17 5:50:25.8170 p.m.,-0.16,-0.86,-0.47,0.04,-0.19,0.07
2022-02-17 5:50:25.8260 p.m.,-0.02,-0.87,-0.81,0.02,-0.15,0.1
2022-02-17 5:50:25.8370 p.m.,0.11,-0.87,-1.12,-0.02,-0.1,0.11
2022-02-17 5:50:25.8470 p.m.,0.15,-0.87,-1.22,-0.06,-0.07,0.12
2022-02-17 5:50:25.8570 p.m.,0.16,-0.84,-1.26,-0.1,-0.07,0.14
2022-02-17 5:50:25.8670 p.m.,0.19,-0.78,-1.22,-0.11,-0.09,0.14
2022-02-17 5:50:25.8770 p.m.,0.18,-0.75,-1.21,-0.11,-0.14,0.13
2022-02-17 5:50:25.8870 p.m.,0.14,-0.78,-1.25,-0.09,-0.19,0.13
2022-02-17 5:50:25.8970 p.m.,0.08,-0.74,-1.31,-0.08,-0.21,0.14
2022-02-17 5:50:25.9070 p.m.,0.08,-0.58,-1.42,-0.1,-0.17,0.18
2022-02-17 5:50:25.9170 p.m.,0.05,-0.38,-1.57,-0.11,-0.12,0.23
2022-02-17 5:50:25.9270 p.m.,0.05,-0.16,-1.66,-0.16,-0.06,0.28
2022-02-17 5:50:25.9370 p.m.,0.01,-0.03,-1.64,-0.23,-0.01,0.32
2022-02-17 5:50:25.9470 p.m.,-0.03,0.01,-1.48,-0.32,0.01,0.35
2022-02-17 5:50:25.9570 p.m.,-0.06,0.04,-1.27,-0.4,-0.06,0.38
2022-02-17 5:50:25.9680 p.m.,-0.13,0.07,-0.98,-0.43,-0.16,0.39
2022-02-17 5:50:25.9770 p.m.,-0.23,0.01,-0.75,-0.41,-0.27,0.39
2022-02-17 5:50:25.9880 p.m.,-0.29,-0.05,-0.64,-0.35,-0.35,0.39
2022-02-17 5:50:25.9970 p.m.,-0.28,-0.01,-0.68,-0.29,-0.38,0.38
2022-02-17 5:50:26.0070 p.m.,-0.18,0.03,-0.85,-0.25,-0.32,0.37
2022-02-17 5:50:26.0170 p.m.,-0.14,0.08,-1.0,-0.22,-0.2,0.38
2022-02-17 5:50:26.0270 p.m.,-0.06,0.22,-1.12,-0.21,-0.02,0.41
2022-02-17 5:50:26.0380 p.m.,-0.01,0.42,-1.06,-0.21,0.15,0.44
2022-02-17 5:50:26.0480 p.m.,-0.04,0.51,-0.77,-0.21,0.28,0.45
2022-02-17 5:50:26.0580 p.m.,-0.14,0.45,-0.39,-0.22,0.37,0.44
2022-02-17 5:50:26.0680 p.m.,-0.27,0.26,0.02,-0.23,0.38,0.44
2022-02-17 5:50:26.0780 p.m.,-0.47,0.15,0.58,-0.26,0.33,0.46
2022-02-17 5:50:26.0880 p.m.,-0.66,0.17,1.13,-0.29,0.29,0.48
2022-02-17 5:50:26.0980 p.m.,-0.72,0.18,1.54,-0.28,0.22,0.51
2022-02-17 5:50:26.1080 p.m.,-0.8,0.15,1.83,-0.25,0.16,0.52
2022-02-17 5:50:26.1180 p.m.,-0.89,0.09,1.99,-0.19,0.13,0.52
2022-02-17 5:50:26.1280 p.m.,-0.89,0.01,2.04,-0.12,0.14,0.51
2022-02-17 5:50:26.1380 p.m.,-0.86,0.08,2.07,-0.06,0.18,0.53
2022-02-17 5:50:26.1480 p.m.,-0.9,0.21,2.03,-0.03,0.24,0.59
2022-02-17 5:50:26.1580 p.m.,-1.03,0.29,2.01,-0.04,0.32,0.68
2022-02-17 5:50:26.1670 p.m.,-1.06,0.5,2.04,-0.1,0.4,0.79
2022-02-17 5:50:26.1780 p.m.,-0.99,0.69,2.23,-0.18,0.43,0.89
2022-02-17 5:50:26.1890 p.m.,-0.99,0.69,2.23,-0.27,0.42,0.95
2022-02-17 5:50:26.1980 p.m.,-1.19,0.5,2.28,-0.37,0.41,1.0
2022-02-17 5:50:26.2080 p.m.,-1.33,0.35,2.23,-0.43,0.39,1.06
2022-02-17 5:50:26.2180 p.m.,-1.33,0.27,2.1,-0.48,0.39,1.11
2022-02-17 5:50:26.2280 p.m.,-1.42,0.18,1.82,-0.5,0.39,1.17
2022-02-17 5:50:26.2380 p.m.,-1.48,0.03,1.48,-0.49,0.39,1.22
2022-02-17 5:50:26.2490 p.m.,-1.49,-0.14,1.22,-0.46,0.37,1.26
2022-02-17 5:50:26.2580 p.m.,-1.61,-0.39,0.93,-0.45,0.35,1.33
2022-02-17 5:50:26.2690 p.m.,-1.66,-0.52,0.72,-0.48,0.32,1.41
2022-02-17 5:50:26.2790 p.m.,-1.58,-0.52,0.66,-0.5,0.28,1.47
2022-02-17 5:50:26.2890 p.m.,-1.52,-0.66,0.68,-0.45,0.2,1.5
2022-02-17 5:50:26.2990 p.m.,-1.54,-0.91,0.62,-0.3,0.09,1.48
2022-02-17 5:50:26.3090 p.m.,-1.54,-1.2,0.46,-0.12,0.03,1.43
2022-02-17 5:50:26.3190 p.m.,-1.48,-1.44,0.12,0.05,0.06,1.38
2022-02-17 5:50:26.3290 p.m.,-1.34,-1.49,-0.26,0.17,0.17,1.33
2022-02-17 5:50:26.3390 p.m.,-1.12,-1.32,-0.56,0.24,0.34,1.29
2022-02-17 5:50:26.3490 p.m.,-0.99,-1.1,-0.76,0.26,0.51,1.29
2022-02-17 5:50:26.3590 p.m.,-1.04,-0.91,-0.73,0.26,0.63,1.32
2022-02-17 5:50:26.3690 p.m.,-1.14,-0.72,-0.57,0.23,0.73,1.36
2022-02-17 5:50:26.3790 p.m.,-1.28,-0.64,-0.38,0.16,0.8,1.42
2022-02-17 5:50:26.3890 p.m.,-1.43,-0.66,-0.18,0.07,0.81,1.49
2022-02-17 5:50:26.3990 p.m.,-1.54,-0.67,0.1,-0.05,0.78,1.55
2022-02-17 5:50:26.4090 p.m.,-1.6,-0.69,0.39,-0.19,0.72,1.59
2022-02-17 5:50:26.4190 p.m.,-1.57,-0.82,0.61,-0.32,0.64,1.62
2022-02-17 5:50:26.4290 p.m.,-1.51,-0.97,0.74,-0.4,0.51,1.61
2022-02-17 5:50:26.4380 p.m.,-1.43,-1.11,0.79,-0.42,0.36,1.58
2022-02-17 5:50:26.4490 p.m.,-1.36,-1.29,0.69,-0.38,0.23,1.54
2022-02-17 5:50:26.4590 p.m.,-1.25,-1.39,0.42,-0.29,0.15,1.5
2022-02-17 5:50:26.4700 p.m.,-0.95,-1.23,-0.38,-0.14,0.13,1.46
2022-02-17 5:50:26.4800 p.m.,-0.95,-1.23,-0.38,0.05,0.09,1.42
2022-02-17 5:50:26.4890 p.m.,-0.93,-1.15,-0.83,0.19,0.14,1.38
2022-02-17 5:50:26.5000 p.m.,-0.83,-1.0,-1.31,0.26,0.24,1.35
2022-02-17 5:50:26.5090 p.m.,-0.64,-0.7,-1.67,0.24,0.35,1.33
2022-02-17 5:50:26.5200 p.m.,-0.48,-0.43,-1.85,0.18,0.41,1.3
2022-02-17 5:50:26.5300 p.m.,-0.4,-0.25,-1.81,0.1,0.45,1.28
2022-02-17 5:50:26.5400 p.m.,-0.35,-0.08,-1.63,0.06,0.4,1.24
2022-02-17 5:50:26.5500 p.m.,-0.32,0.03,-1.41,0.05,0.28,1.2
2022-02-17 5:50:26.5590 p.m.,-0.35,0.08,-1.26,0.03,0.16,1.14
2022-02-17 5:50:26.5690 p.m.,-0.34,0.12,-1.24,-0.03,0.11,1.09
2022-02-17 5:50:26.5800 p.m.,-0.22,0.57,-1.43,-0.12,0.14,1.08
2022-02-17 5:50:26.5900 p.m.,-0.22,0.57,-1.43,-0.24,0.23,1.1
2022-02-17 5:50:26.6000 p.m.,-0.13,0.92,-1.49,-0.35,0.34,1.13
2022-02-17 5:50:26.6100 p.m.,-0.13,1.2,-1.42,-0.43,0.44,1.16
2022-02-17 5:50:26.6210 p.m.,-0.24,1.28,-1.2,-0.46,0.5,1.17
2022-02-17 5:50:26.6310 p.m.,-0.41,1.21,-0.9,-0.44,0.52,1.14
2022-02-17 5:50:26.6400 p.m.,-0.65,1.0,-0.55,-0.36,0.48,1.09
2022-02-17 5:50:26.6510 p.m.,-0.8,0.84,-0.23,-0.23,0.4,1.02
2022-02-17 5:50:26.6600 p.m.,-0.91,0.81,0.0,-0.08,0.28,0.95
2022-02-17 5:50:26.6710 p.m.,-1.03,0.85,0.09,0.04,0.17,0.87
2022-02-17 5:50:26.6810 p.m.,-1.09,0.92,0.04,0.1,0.13,0.81
2022-02-17 5:50:26.6910 p.m.,-0.81,1.47,-0.18,0.13,0.15,0.79
2022-02-17 5:50:26.7010 p.m.,-0.81,1.47,-0.18,0.14,0.17,0.77
2022-02-17 5:50:26.7110 p.m.,-0.67,1.72,-0.23,0.14,0.16,0.76
2022-02-17 5:50:26.7210 p.m.,-0.58,1.74,-0.11,0.16,0.12,0.75
2022-02-17 5:50:26.7310 p.m.,-0.48,1.66,0.05,0.18,0.06,0.74
2022-02-17 5:50:26.7410 p.m.,-0.37,1.48,0.19,0.2,0.0,0.71
2022-02-17 5:50:26.7510 p.m.,-0.27,1.2,0.33,0.22,-0.04,0.66
2022-02-17 5:50:26.7610 p.m.,-0.12,1.06,0.43,0.21,-0.03,0.61
2022-02-17 5:50:26.7710 p.m.,-0.06,0.89,0.5,0.19,0.03,0.55
2022-02-17 5:50:26.7810 p.m.,-0.02,0.7,0.73,0.2,0.07,0.48
2022-02-17 5:50:26.7910 p.m.,-0.06,0.51,1.13,0.27,0.04,0.4
2022-02-17 5:50:26.8010 p.m.,-0.18,0.33,1.49,0.4,-0.07,0.31
2022-02-17 5:50:26.8110 p.m.,-0.24,0.31,1.88,0.53,-0.19,0.24
2022-02-17 5:50:26.8210 p.m.,-0.29,0.37,2.06,0.61,-0.26,0.21
2022-02-17 5:50:26.8310 p.m.,-0.13,0.52,1.98,0.63,-0.25,0.18
2022-02-17 5:50:26.8410 p.m.,0.12,0.66,1.71,0.56,-0.17,0.16
2022-02-17 5:50:26.8510 p.m.,0.33,0.8,1.4,0.4,-0.05,0.15
2022-02-17 5:50:26.8610 p.m.,0.55,0.97,1.31,0.14,0.09,0.15
2022-02-17 5:50:26.8710 p.m.,0.65,1.08,1.41,-0.17,0.22,0.15
2022-02-17 5:50:26.8810 p.m.,0.61,1.04,1.61,-0.43,0.3,0.18
2022-02-17 5:50:26.8910 p.m.,0.4,0.9,1.88,-0.59,0.29,0.22
2022-02-17 5:50:26.9010 p.m.,0.04,0.65,2.32,-0.62,0.21,0.26
2022-02-17 5:50:26.9110 p.m.,-0.35,0.21,2.7,-0.5,0.02,0.27
2022-02-17 5:50:26.9220 p.m.,-0.71,-0.31,2.85,-0.31,-0.22,0.24
2022-02-17 5:50:26.9320 p.m.,-0.96,-0.81,2.82,-0.11,-0.42,0.21
2022-02-17 5:50:26.9420 p.m.,-1.01,-1.07,2.59,0.06,-0.52,0.17
2022-02-17 5:50:26.9520 p.m.,-0.82,-1.14,2.14,0.19,-0.56,0.13
2022-02-17 5:50:26.9620 p.m.,-0.66,-1.16,1.54,0.29,-0.5,0.08
2022-02-17 5:50:26.9720 p.m.,-0.53,-1.2,0.86,0.41,-0.37,0.04
2022-02-17 5:50:26.9820 p.m.,-0.37,-1.18,0.21,0.53,-0.23,0.0
2022-02-17 5:50:26.9920 p.m.,-0.23,-1.12,-0.31,0.65,-0.1,-0.03
2022-02-17 5:50:27.0010 p.m.,-0.16,-1.07,-0.64,0.73,0.0,-0.05
2022-02-17 5:50:27.0120 p.m.,-0.17,-1.0,-0.9,0.78,0.11,-0.06
2022-02-17 5:50:27.0210 p.m.,-0.1,-0.85,-1.14,0.8,0.19,-0.06
2022-02-17 5:50:27.0320 p.m.,-0.05,-0.72,-1.28,0.78,0.25,-0.07
2022-02-17 5:50:27.0420 p.m.,-0.09,-0.68,-1.35,0.72,0.32,-0.06
2022-02-17 5:50:27.0520 p.m.,-0.03,-0.57,-1.39,0.64,0.37,-0.03
2022-02-17 5:50:27.0620 p.m.,0.03,-0.42,-1.36,0.54,0.41,0.01
2022-02-17 5:50:27.0720 p.m.,0.02,-0.31,-1.26,0.41,0.44,0.07
2022-02-17 5:50:27.0820 p.m.,-0.03,-0.26,-1.06,0.28,0.44,0.14
2022-02-17 5:50:27.0920 p.m.,-0.08,-0.2,-0.86,0.17,0.44,0.22
2022-02-17 5:50:27.1020 p.m.,-0.13,-0.23,-0.69,0.08,0.41,0.28
2022-02-17 5:50:27.1120 p.m.,-0.19,-0.39,-0.56,0.02,0.38,0.32
2022-02-17 5:50:27.1220 p.m.,-0.34,-0.74,-0.42,-0.04,0.33,0.35
2022-02-17 5:50:27.1320 p.m.,-0.34,-0.74,-0.42,-0.07,0.28,0.38
2022-02-17 5:50:27.1430 p.m.,-0.35,-0.81,-0.35,-0.09,0.23,0.38
2022-02-17 5:50:27.1520 p.m.,-0.4,-0.91,-0.36,-0.09,0.19,0.39
2022-02-17 5:50:27.1620 p.m.,-0.44,-0.96,-0.41,-0.07,0.13,0.4
2022-02-17 5:50:27.1720 p.m.,-0.42,-0.9,-0.39,-0.01,0.07,0.42
2022-02-17 5:50:27.1830 p.m.,-0.43,-0.81,-0.43,0.05,-0.01,0.43
2022-02-17 5:50:27.1930 p.m.,-0.43,-0.76,-0.6,0.09,-0.06,0.45
2022-02-17 5:50:27.2030 p.m.,-0.37,-0.62,-0.85,0.07,-0.09,0.46
2022-02-17 5:50:27.2130 p.m.,-0.22,-0.46,-1.09,0.04,-0.1,0.45
2022-02-17 5:50:27.2230 p.m.,-0.09,-0.34,-1.34,-0.01,-0.08,0.44
2022-02-17 5:50:27.2320 p.m.,0.01,-0.26,-1.6,-0.08,-0.03,0.42
2022-02-17 5:50:27.2430 p.m.,0.1,-0.14,-1.76,-0.14,0.04,0.4
2022-02-17 5:50:27.2530 p.m.,0.2,0.0,-1.77,-0.18,0.1,0.39
2022-02-17 5:50:27.2700 p.m.,0.17,0.2,-1.57,-0.19,0.13,0.38
2022-02-17 5:50:27.2760 p.m.,0.16,0.22,-1.58,-0.16,0.13,0.37
2022-02-17 5:50:27.2860 p.m.,0.07,0.22,-1.42,-0.11,0.11,0.38
2022-02-17 5:50:27.2960 p.m.,-0.02,0.31,-1.25,-0.07,0.12,0.4
2022-02-17 5:50:27.3060 p.m.,-0.05,0.45,-1.15,-0.04,0.12,0.44
2022-02-17 5:50:27.3160 p.m.,-0.04,0.55,-1.05,-0.02,0.13,0.45
2022-02-17 5:50:27.3260 p.m.,0.0,0.61,-0.93,-0.02,0.13,0.45
2022-02-17 5:50:27.3360 p.m.,0.07,0.61,-0.85,-0.05,0.15,0.43
2022-02-17 5:50:27.3460 p.m.,0.25,0.63,-0.73,-0.06,0.2,0.39
2022-02-17 5:50:27.3560 p.m.,0.4,0.63,-0.62,-0.05,0.27,0.34
2022-02-17 5:50:27.3660 p.m.,0.45,0.57,-0.49,-0.02,0.33,0.29
2022-02-17 5:50:27.3770 p.m.,0.45,0.51,-0.18,0.04,0.39,0.26
2022-02-17 5:50:27.3870 p.m.,0.39,0.5,0.2,0.14,0.43,0.25
2022-02-17 5:50:27.3960 p.m.,0.28,0.51,0.6,0.26,0.41,0.27
2022-02-17 5:50:27.4070 p.m.,0.11,0.45,1.04,0.35,0.37,0.29
2022-02-17 5:50:27.4170 p.m.,0.04,0.43,1.37,0.39,0.36,0.32
2022-02-17 5:50:27.4270 p.m.,0.09,0.51,1.57,0.38,0.33,0.33
2022-02-17 5:50:27.4370 p.m.,0.2,0.56,1.73,0.36,0.31,0.31
2022-02-17 5:50:27.4470 p.m.,0.22,0.56,1.82,0.32,0.31,0.28
2022-02-17 5:50:27.4570 p.m.,0.19,0.58,1.88,0.3,0.33,0.27
2022-02-17 5:50:27.4670 p.m.,0.13,0.63,1.89,0.28,0.39,0.28
2022-02-17 5:50:27.4770 p.m.,0.02,0.71,1.86,0.25,0.48,0.34
Time,-0.16,0.88,1.91,0.19,0.57,0.43
2022-02-17 5:50:27.4970 p.m.,-0.23,1.1,2.06,0.1,0.63,0.54
2022-02-17 5:50:27.5070 p.m.,-0.3,1.14,2.16,0.01,0.67,0.64
2022-02-17 5:50:27.5170 p.m.,-0.5,0.88,2.07,-0.1,0.7,0.7
2022-02-17 5:50:27.5270 p.m.,-0.73,0.45,1.86,-0.27,0.74,0.74
2022-02-17 5:50:27.5370 p.m.,-0.91,0.11,1.73,-0.47,0.72,0.79
2022-02-17 5:50:27.5470 p.m.,-0.99,-0.14,1.84,-0.62,0.62,0.84
2022-02-17 5:50:27.5570 p.m.,-1.16,-0.34,1.95,-0.65,0.47,0.86
2022-02-17 5:50:27.5670 p.m.,-1.31,-0.6,1.77,-0.58,0.26,0.87
2022-02-17 5:50:27.5770 p.m.,-1.34,-0.95,1.36,-0.41,0.04,0.84
2022-02-17 5:50:27.5870 p.m.,-1.29,-1.33,0.71,-0.2,-0.14,0.8
2022-02-17 5:50:27.5970 p.m.,-1.32,-1.64,-0.13,0.0,-0.24,0.77
2022-02-17 5:50:27.6070 p.m.,-1.13,-1.69,-0.86,0.14,-0.25,0.76
2022-02-17 5:50:27.6180 p.m.,-0.9,-1.61,-1.47,0.23,-0.22,0.74
2022-02-17 5:50:27.6280 p.m.,-0.73,-1.48,-1.96,0.22,-0.12,0.75
2022-02-17 5:50:27.6380 p.m.,-0.68,-1.35,-2.34,0.14,0.0,0.77
2022-02-17 5:50:27.6480 p.m.,-0.5,-1.01,-2.53,0.02,0.13,0.78
2022-02-17 5:50:27.6580 p.m.,-0.42,-0.68,-2.51,-0.12,0.21,0.78
2022-02-17 5:50:27.6680 p.m.,-0.34,-0.47,-2.2,-0.21,0.22,0.78
2022-02-17 5:50:27.6780 p.m.,-0.39,-0.38,-1.74,-0.26,0.22,0.78
2022-02-17 5:50:27.6880 p.m.,-0.6,-0.3,-1.35,-0.28,0.26,0.81
2022-02-17 5:50:27.6980 p.m.,-0.69,-0.23,-1.1,-0.37,0.39,0.86
2022-02-17 5:50:27.7080 p.m.,-0.64,-0.08,-0.87,-0.51,0.6,0.94
2022-02-17 5:50:27.7180 p.m.,-0.53,0.11,-0.48,-0.68,0.78,1.01
2022-02-17 5:50:27.7280 p.m.,-0.53,0.16,0.06,-0.82,0.9,1.06
2022-02-17 5:50:27.7380 p.m.,-0.53,0.01,0.67,-0.83,0.88,1.05
2022-02-17 5:50:27.7480 p.m.,-0.58,-0.31,1.3,-0.73,0.69,0.96
2022-02-17 5:50:27.7580 p.m.,-0.72,-0.71,1.74,-0.53,0.35,0.83
2022-02-17 5:50:27.7680 p.m.,-0.91,-1.01,1.97,-0.33,0.03,0.7
2022-02-17 5:50:27.7780 p.m.,-0.96,-0.99,1.71,-0.18,-0.12,0.62
2022-02-17 5:50:27.7880 p.m.,-0.75,-0.62,0.98,-0.08,-0.19,0.57
2022-02-17 5:50:27.7980 p.m.,-0.57,-0.2,0.23,-0.04,-0.14,0.57
2022-02-17 5:50:27.8080 p.m.,-0.5,0.11,-0.41,-0.02,-0.03,0.6
2022-02-17 5:50:27.8180 p.m.,-0.37,0.48,-0.85,0.03,0.08,0.63
2022-02-17 5:50:27.8280 p.m.,-0.28,0.73,-1.19,0.08,0.17,0.64
2022-02-17 5:50:27.8380 p.m.,-0.29,0.67,-1.39,0.15,0.23,0.62
2022-02-17 5:50:27.8480 p.m.,-0.38,0.58,-1.38,0.21,0.24,0.59
2022-02-17 5:50:27.8590 p.m.,-0.4,0.6,-1.3,0.28,0.22,0.57
2022-02-17 5:50:27.8690 p.m.,-0.45,0.64,-1.3,0.29,0.18,0.55
2022-02-17 5:50:27.8790 p.m.,-0.5,0.66,-1.33,0.23,0.15,0.54
2022-02-17 5:50:27.8890 p.m.,-0.5,0.7,-1.29,0.13,0.13,0.57
2022-02-17 5:50:27.8990 p.m.,-0.47,0.88,-1.25,-0.0,0.11,0.62
2022-02-17 5:50:27.9090 p.m.,-0.42,1.1,-1.24,-0.13,0.09,0.67
2022-02-17 5:50:27.9190 p.m.,-0.41,1.21,-1.2,-0.23,0.05,0.69
2022-02-17 5:50:27.9290 p.m.,-0.43,1.15,-1.17,-0.3,-0.0,0.69
2022-02-17 5:50:27.9390 p.m.,-0.41,1.04,-1.07,-0.32,-0.07,0.66
2022-02-17 5:50:27.9490 p.m.,-0.42,0.93,-0.9,-0.31,-0.14,0.58
2022-02-17 5:50:27.9590 p.m.,-0.48,0.76,-0.7,-0.26,-0.2,0.49
2022-02-17 5:50:27.9630 p.m.,-0.48,0.76,-0.7,-0.18,-0.22,0.42
2022-02-17 5:50:27.9760 p.m.,-0.4,0.95,-0.46,-0.07,-0.23,0.36
2022-02-17 5:50:27.9860 p.m.,-0.28,1.13,-0.45,0.03,-0.22,0.3
2022-02-17 5:50:27.9960 p.m.,-0.16,1.24,-0.41,0.11,-0.2,0.24
2022-02-17 5:50:28.0060 p.m.,0.0,1.27,-0.38,0.14,-0.15,0.18
2022-02-17 5:50:28.0160 p.m.,0.25,1.26,-0.27,0.15,-0.11,0.12
2022-02-17 5:50:28.0260 p.m.,0.41,1.17,-0.02,0.17,-0.07,0.04
2022-02-17 5:50:28.0360 p.m.,0.56,1.07,0.28,0.19,-0.03,-0.05
2022-02-17 5:50:28.0460 p.m.,0.68,0.93,0.52,0.21,0.04,-0.16
2022-02-17 5:50:28.0560 p.m.,0.68,0.74,0.82,0.25,0.11,-0.28
2022-02-17 5:50:28.0670 p.m.,0.66,0.58,1.11,0.29,0.18,-0.38
2022-02-17 5:50:28.0760 p.m.,0.5,0.45,1.53,0.36,0.2,-0.45
2022-02-17 5:50:28.0860 p.m.,0.41,0.62,2.03,0.45,0.13,-0.49
2022-02-17 5:50:28.0970 p.m.,0.35,0.97,2.46,0.52,0.02,-0.53
2022-02-17 5:50:28.1060 p.m.,0.26,1.11,2.77,0.55,-0.09,-0.53
2022-02-17 5:50:28.1170 p.m.,0.27,1.23,2.76,0.5,-0.15,-0.53
2022-02-17 5:50:28.1270 p.m.,0.39,1.36,2.52,0.38,-0.17,-0.53
2022-02-17 5:50:28.1370 p.m.,0.52,1.46,2.27,0.21,-0.15,-0.51
2022-02-17 5:50:28.1470 p.m.,0.67,1.53,2.16,0.03,-0.11,-0.49
2022-02-17 5:50:28.1570 p.m.,0.78,1.49,2.12,-0.11,-0.09,-0.48
2022-02-17 5:50:28.1660 p.m.,0.59,0.89,2.05,-0.19,-0.11,-0.46
2022-02-17 5:50:28.1770 p.m.,0.59,0.89,2.05,-0.2,-0.13,-0.46
2022-02-17 5:50:28.1870 p.m.,0.45,0.47,2.02,-0.18,-0.15,-0.46
2022-02-17 5:50:28.1970 p.m.,0.26,0.03,1.95,-0.15,-0.2,-0.46
2022-02-17 5:50:28.2070 p.m.,0.12,-0.37,2.07,-0.12,-0.31,-0.48
2022-02-17 5:50:28.2170 p.m.,0.01,-0.65,2.17,-0.08,-0.56,-0.55
2022-02-17 5:50:28.2270 p.m.,-0.06,-1.03,2.34,-0.03,-0.84,-0.66
2022-02-17 5:50:28.2370 p.m.,-0.08,-1.4,2.21,0.0,-1.13,-0.79
2022-02-17 5:50:28.2470 p.m.,-0.01,-1.57,1.73,0.01,-1.33,-0.88
2022-02-17 5:50:28.2570 p.m.,0.37,-1.5,1.17,0.01,-1.45,-0.97
2022-02-17 5:50:28.2670 p.m.,0.37,-1.32,0.37,0.01,-1.45,-1.04
2022-02-17 5:50:28.2770 p.m.,0.41,-1.22,-0.23,0.02,-1.28,-1.05
2022-02-17 5:50:28.2870 p.m.,0.66,-0.87,-1.07,0.06,-0.96,-1.02
2022-02-17 5:50:28.2970 p.m.,0.93,-0.52,-1.79,0.15,-0.62,-0.97
2022-02-17 5:50:28.3070 p.m.,0.99,-0.32,-2.18,0.27,-0.28,-0.91
2022-02-17 5:50:28.3170 p.m.,0.99,-0.29,-2.28,0.39,0.04,-0.85
2022-02-17 5:50:28.3270 p.m.,0.94,-0.2,-2.39,0.46,0.51,-0.84
2022-02-17 5:50:28.3380 p.m.,0.71,-0.59,-2.72,0.45,0.63,-0.75
2022-02-17 5:50:28.3480 p.m.,0.86,-0.28,-2.3,0.44,0.64,-0.63
2022-02-17 5:50:28.3580 p.m.,1.0,0.67,-1.05,0.39,0.58,-0.62
2022-02-17 5:50:28.3670 p.m.,0.8,-0.42,-1.11,0.32,0.49,-0.65
2022-02-17 5:50:28.3780 p.m.,0.45,-0.62,-0.94,0.23,0.45,-0.65
2022-02-17 5:50:28.3880 p.m.,0.72,-0.52,-1.09,0.11,0.46,-0.62
2022-02-17 5:50:28.3980 p.m.,0.59,-0.47,-1.31,0.02,0.5,-0.54
2022-02-17 5:50:28.4080 p.m.,0.53,-0.26,-1.61,-0.05,0.49,-0.44
2022-02-17 5:50:28.4180 p.m.,0.5,-0.13,-1.69,-0.12,0.29,-0.33
2022-02-17 5:50:28.4280 p.m.,0.43,-0.08,-1.08,-0.17,0.15,-0.23
2022-02-17 5:50:28.4380 p.m.,0.39,-0.11,-0.72,-0.18,0.05,-0.16
2022-02-17 5:50:28.4480 p.m.,0.45,-0.19,-1.29,-0.16,-0.04,-0.13
2022-02-17 5:50:28.4580 p.m.,0.49,-0.28,-1.18,-0.12,-0.11,-0.15
2022-02-17 5:50:28.4680 p.m.,0.47,-0.67,-1.81,-0.07,-0.12,-0.21
2022-02-17 5:50:28.4780 p.m.,0.47,-0.67,-1.81,-0.03,-0.07,-0.27
2022-02-17 5:50:28.4880 p.m.,0.48,-0.65,-2.13,-0.01,0.02,-0.3
2022-02-17 5:50:28.4990 p.m.,0.54,-0.47,-2.38,-0.01,0.11,-0.31
2022-02-17 5:50:28.5080 p.m.,0.47,-0.27,-2.42,-0.04,0.2,-0.3
2022-02-17 5:50:28.5180 p.m.,0.48,-0.05,-2.22,-0.08,0.24,-0.29
2022-02-17 5:50:28.5280 p.m.,0.46,0.14,-1.97,-0.08,0.18,-0.28
2022-02-17 5:50:28.5380 p.m.,0.36,0.11,-1.55,-0.07,0.07,-0.29
2022-02-17 5:50:28.5480 p.m.,0.23,-0.01,-1.22,-0.06,-0.04,-0.29
2022-02-17 5:50:28.5580 p.m.,0.24,-0.01,-1.06,-0.04,-0.15,-0.28
2022-02-17 5:50:28.5670 p.m.,0.27,0.06,-0.98,-0.03,-0.2,-0.27
2022-02-17 5:50:28.5770 p.m.,0.21,0.05,-0.97,-0.02,-0.19,-0.24
2022-02-17 5:50:28.5890 p.m.,0.44,0.28,-0.92,0.01,-0.14,-0.23
2022-02-17 5:50:28.5990 p.m.,0.44,0.28,-0.92,0.04,-0.08,-0.23
2022-02-17 5:50:28.6090 p.m.,0.44,0.26,-0.32,0.06,-0.02,-0.22
2022-02-17 5:50:28.6190 p.m.,0.44,0.26,-0.32,0.07,0.02,-0.24
2022-02-17 5:50:28.6290 p.m.,0.38,0.2,0.23,0.06,0.06,-0.28
2022-02-17 5:50:28.6390 p.m.,0.25,0.06,0.79,0.06,0.09,-0.29
2022-02-17 5:50:28.6490 p.m.,0.11,0.06,1.8548929256200792,0.11,0.07,-0.25
2022-02-17 5:50:28.6590 p.m.,-0.11,0.2,1.85,0.19,-0.0,-0.19
2022-02-17 5:50:28.6690 p.m.,-0.28,0.22,2.28,0.28,-0.08,-0.12
2022-02-17 5:50:28.6790 p.m.,-0.3,0.27,2.55,0.34,-0.15,-0.06
2022-02-17 5:50:28.6890 p.m.,-0.31,0.35,2.62,0.34,-0.14,0.0
2022-02-17 5:50:28.6990 p.m.,-0.37,0.4,2.61,0.27,-0.09,0.08
2022-02-17 5:50:28.7090 p.m.,-0.41,0.7,2.72,0.14,-0.02,0.19
2022-02-17 5:50:28.7200 p.m.,-0.41,0.7,2.72,-0.02,0.04,0.29
2022-02-17 5:50:28.7290 p.m.,-0.43,0.85,2.92,-0.18,0.08,0.39
2022-02-17 5:50:28.7390 p.m.,-0.55,0.84,3.07,-0.3,0.11,0.48
2022-02-17 5:50:28.7500 p.m.,-0.72,0.64,3.03,-0.36,0.15,0.56
2022-02-17 5:50:28.7600 p.m.,-0.86,0.31,2.79,-0.46,0.27,0.64
2022-02-17 5:50:28.7700 p.m.,-1.02,0.04,2.48,-0.6,0.43,0.76
2022-02-17 5:50:28.7790 p.m.,-0.98,-0.04,2.29,-0.74,0.55,0.89
2022-02-17 5:50:28.7890 p.m.,-0.92,-0.03,2.28,-0.83,0.53,0.97
2022-02-17 5:50:28.7990 p.m.,-1.01,-0.21,2.46,-0.78,0.35,0.98
2022-02-17 5:50:28.8090 p.m.,-1.26,-1.28,2.26,-0.61,0.04,0.91
2022-02-17 5:50:28.8200 p.m.,-1.26,-1.28,2.26,-0.35,-0.29,0.79
2022-02-17 5:50:28.8300 p.m.,-1.3,-1.68,1.69,-0.08,-0.48,0.66
2022-02-17 5:50:28.8400 p.m.,-1.23,-1.74,0.75,0.17,-0.51,0.57
2022-02-17 5:50:28.8500 p.m.,-1.05,-1.5,-0.37,0.37,-0.4,0.51
2022-02-17 5:50:28.8600 p.m.,-0.89,-1.2,-1.42,0.49,-0.19,0.5
2022-02-17 5:50:28.8700 p.m.,-0.61,-0.81,-2.08,0.52,0.05,0.55
2022-02-17 5:50:28.8800 p.m.,-0.26,-0.34,-2.34,0.49,0.24,0.58
2022-02-17 5:50:28.8900 p.m.,-0.1,-0.06,-2.26,0.43,0.31,0.59
2022-02-17 5:50:28.9000 p.m.,-0.13,-0.07,-1.93,0.37,0.3,0.57
2022-02-17 5:50:28.9100 p.m.,-0.14,-0.1,-1.57,0.33,0.24,0.56
2022-02-17 5:50:28.9200 p.m.,-0.13,-0.04,-1.31,0.28,0.18,0.55
2022-02-17 5:50:28.9300 p.m.,-0.08,0.01,-1.17,0.21,0.16,0.56
2022-02-17 5:50:28.9400 p.m.,0.05,0.1,-1.15,0.09,0.22,0.61
2022-02-17 5:50:28.9500 p.m.,0.12,0.22,-1.22,-0.05,0.33,0.68
2022-02-17 5:50:28.9600 p.m.,0.1,0.34,-1.2,-0.2,0.45,0.77
2022-02-17 5:50:28.9700 p.m.,0.09,0.39,-1.02,-0.33,0.51,0.84
2022-02-17 5:50:28.9800 p.m.,0.02,0.27,-0.64,-0.43,0.46,0.87
2022-02-17 5:50:28.9900 p.m.,-0.25,-0.38,0.33,-0.48,0.33,0.86
2022-02-17 5:50:29.0010 p.m.,-0.25,-0.38,0.33,-0.46,0.15,0.81
2022-02-17 5:50:29.0100 p.m.,-0.24,-0.59,0.57,-0.37,-0.05,0.73
2022-02-17 5:50:29.0200 p.m.,-0.25,-0.76,0.6,-0.24,-0.21,0.63
2022-02-17 5:50:29.0310 p.m.,-0.27,-0.82,0.36,-0.11,-0.27,0.54
2022-02-17 5:50:29.0410 p.m.,-0.21,-0.68,-0.16,-0.04,-0.24,0.47
2022-02-17 5:50:29.0510 p.m.,-0.08,-0.37,-0.7,-0.02,-0.16,0.4
2022-02-17 5:50:29.0600 p.m.,0.01,-0.09,-1.15,-0.02,-0.04,0.35
2022-02-17 5:50:29.0700 p.m.,-0.03,0.08,-1.55,-0.04,0.08,0.33
2022-02-17 5:50:29.0810 p.m.,-0.06,0.35,-1.77,-0.05,0.15,0.32
2022-02-17 5:50:29.0910 p.m.,-0.13,0.63,-1.8,-0.07,0.18,0.31
2022-02-17 5:50:29.1000 p.m.,-0.24,0.71,-1.68,-0.07,0.16,0.29
2022-02-17 5:50:29.1110 p.m.,-0.33,0.68,-1.49,-0.05,0.11,0.25
2022-02-17 5:50:29.1210 p.m.,-0.4,0.63,-1.28,0.0,0.05,0.19
2022-02-17 5:50:29.1310 p.m.,-0.5,0.61,-1.16,0.04,0.05,0.17
2022-02-17 5:50:29.1410 p.m.,-0.52,0.9274900245666504,-1.1648507273197175,0.04,0.08,0.17
2022-02-17 5:50:29.1500 p.m.,-0.41,0.92,-1.17,0.02,0.11,0.18
2022-02-17 5:50:29.1610 p.m.,-0.29,1.11,-1.07,-0.0,0.1,0.18
2022-02-17 5:50:29.1710 p.m.,-0.22,1.11,-0.85,-0.01,0.03,0.14
2022-02-17 5:50:29.1810 p.m.,-0.16,1.0,-0.54,-0.01,-0.1,0.08
2022-02-17 5:50:29.1910 p.m.,-0.11,0.86,-0.26,-0.01,-0.23,0.02
2022-02-17 5:50:29.2010 p.m.,-0.01,0.83,-0.05,-0.03,-0.3,-0.03
2022-02-17 5:50:29.2110 p.m.,0.16,0.94,0.02,-0.05,-0.34,-0.07
2022-02-17 5:50:29.2210 p.m.,0.38,1.07,0.15,-0.07,-0.36,-0.11
2022-02-17 5:50:29.2310 p.m.,0.44,1.01,0.4,-0.05,-0.34,-0.14
2022-02-17 5:50:29.2410 p.m.,0.52,0.91,0.55,-0.0,-0.28,-0.22
2022-02-17 5:50:29.2510 p.m.,0.61,0.74,0.67,0.08,-0.2,-0.29
2022-02-17 5:50:29.2610 p.m.,0.7,0.51,0.8,0.17,-0.12,-0.38
2022-02-17 5:50:29.2710 p.m.,0.69,0.36,0.96,0.23,-0.03,-0.46
2022-02-17 5:50:29.2820 p.m.,0.67,0.23,1.25,0.3,0.01,-0.54
2022-02-17 5:50:29.2910 p.m.,0.77,0.26,1.62,0.38,0.02,-0.61
2022-02-17 5:50:29.3020 p.m.,0.73,0.41,1.89,0.47,-0.01,-0.67
2022-02-17 5:50:29.3110 p.m.,0.68,0.61,2.1,0.48,-0.02,-0.69
2022-02-17 5:50:29.3220 p.m.,0.71,0.87,2.23,0.39,-0.01,-0.68
2022-02-17 5:50:29.3320 p.m.,0.8,1.12,2.31,0.26,-0.04,-0.67
2022-02-17 5:50:29.3420 p.m.,0.89,1.22,2.41,0.12,-0.1,-0.68
2022-02-17 5:50:29.3520 p.m.,0.88,1.17,2.42,-0.01,-0.16,-0.68
2022-02-17 5:50:29.3620 p.m.,0.79,0.98,2.15,-0.09,-0.15,-0.68
2022-02-17 5:50:29.3720 p.m.,0.63,0.64,1.64,-0.21,-0.03,-0.64
2022-02-17 5:50:29.3820 p.m.,0.45,0.33,1.2,-0.33,0.1,-0.58
2022-02-17 5:50:29.3920 p.m.,0.39,0.11,1.09,-0.4,0.17,-0.53
2022-02-17 5:50:29.4020 p.m.,0.29,-0.19,1.33,-0.38,0.16,-0.49
2022-02-17 5:50:29.4120 p.m.,0.09,-0.52,1.71,-0.25,0.02,-0.46
2022-02-17 5:50:29.4220 p.m.,0.04,-0.86,1.97,-0.05,-0.24,-0.5
2022-02-17 5:50:29.4320 p.m.,0.02,-1.28,2.1,0.17,-0.54,-0.61
2022-02-17 5:50:29.4420 p.m.,0.01,-1.7,1.9,0.31,-0.71,-0.73
2022-02-17 5:50:29.4520 p.m.,0.2,-1.84,1.29,0.35,-0.75,-0.83
2022-02-17 5:50:29.4620 p.m.,0.54,-1.59,0.48,0.33,-0.71,-0.89
2022-02-17 5:50:29.4730 p.m.,0.81,-0.99,-0.81,0.27,-0.57,-0.91
2022-02-17 5:50:29.4820 p.m.,0.81,-0.99,-0.81,0.2,-0.35,-0.91
2022-02-17 5:50:29.4920 p.m.,0.96,-0.66,-1.25,0.15,-0.1,-0.91
2022-02-17 5:50:29.5030 p.m.,1.11,-0.47,-1.45,0.15,0.08,-0.92
2022-02-17 5:50:29.5120 p.m.,1.11,-0.45,-1.28,0.2,0.21,-0.94
2022-02-17 5:50:29.5230 p.m.,1.0,-0.54,-0.91,0.26,0.3,-0.96
2022-02-17 5:50:29.5330 p.m.,0.93,-0.6,-0.64,0.34,0.34,-0.98
2022-02-17 5:50:29.5430 p.m.,0.88,-0.65,-0.34,0.4,0.34,-1.0
2022-02-17 5:50:29.5530 p.m.,0.76,-0.68,-0.08,0.43,0.33,-0.98
2022-02-17 5:50:29.5630 p.m.,0.66,-0.61,0.05,0.4,0.33,-0.92
2022-02-17 5:50:29.5720 p.m.,0.57,-0.44,0.07,0.33,0.33,-0.82
2022-02-17 5:50:29.5830 p.m.,0.5,-0.26,0.08,0.22,0.31,-0.72
2022-02-17 5:50:29.5930 p.m.,0.49,-0.17,0.16,0.13,0.22,-0.63
2022-02-17 5:50:29.6030 p.m.,0.38,-0.26,0.33,0.06,0.09,-0.56
2022-02-17 5:50:29.6130 p.m.,0.3,-0.46,0.46,0.05,-0.1,-0.53
2022-02-17 5:50:29.6230 p.m.,0.26,-0.64,0.44,0.08,-0.27,-0.51
2022-02-17 5:50:29.6330 p.m.,0.25,-0.82,0.16,0.12,-0.38,-0.5
2022-02-17 5:50:29.6430 p.m.,0.31,-0.86,-0.35,0.15,-0.42,-0.48
2022-02-17 5:50:29.6530 p.m.,0.42,-0.75,-0.91,0.16,-0.4,-0.46
2022-02-17 5:50:29.6630 p.m.,0.5,-0.63,-1.39,0.15,-0.36,-0.44
2022-02-17 5:50:29.6730 p.m.,0.59,-0.56,-1.76,0.11,-0.31,-0.43
2022-02-17 5:50:29.6830 p.m.,0.6,-0.49,-2.04,0.06,-0.27,-0.42
2022-02-17 5:50:29.6930 p.m.,0.6,-0.38,-2.21,0.0,-0.25,-0.42
2022-02-17 5:50:29.7030 p.m.,0.56,-0.28,-2.29,-0.05,-0.24,-0.41
2022-02-17 5:50:29.7140 p.m.,0.53,-0.18,-2.34,-0.1,-0.23,-0.4
2022-02-17 5:50:29.7230 p.m.,0.49,-0.06,-2.31,-0.1,-0.24,-0.38
2022-02-17 5:50:29.7330 p.m.,0.37,0.03,-2.18,-0.07,-0.22,-0.37
2022-02-17 5:50:29.7430 p.m.,0.32,0.08,-2.14,-0.04,-0.14,-0.36
2022-02-17 5:50:29.7530 p.m.,0.27,0.18,-2.25,-0.04,0.0,-0.32
2022-02-17 5:50:29.7640 p.m.,0.34,0.38,-2.26,-0.08,0.12,-0.28
2022-02-17 5:50:29.7730 p.m.,0.37,0.5,-2.02,-0.13,0.19,-0.27
2022-02-17 5:50:29.7840 p.m.,0.25,0.47,-1.58,-0.18,0.22,-0.24
2022-02-17 5:50:29.7940 p.m.,0.21,0.45,-1.18,-0.19,0.21,-0.21
2022-02-17 5:50:29.8040 p.m.,0.21,0.45,-0.71,-0.15,0.13,-0.18
2022-02-17 5:50:29.8140 p.m.,0.11,0.38,-0.21,-0.07,0.05,-0.18
2022-02-17 5:50:29.8240 p.m.,0.13,0.32,0.12,-0.01,-0.0,-0.18
2022-02-17 5:50:29.8340 p.m.,0.14,0.26,0.31,0.02,0.02,-0.18
2022-02-17 5:50:29.8440 p.m.,0.2,0.27,0.43,0.03,0.09,-0.17
2022-02-17 5:50:29.8540 p.m.,0.3,0.4,0.49,0.03,0.17,-0.14
2022-02-17 5:50:29.8640 p.m.,0.34,0.48,0.65,0.03,0.21,-0.11
2022-02-17 5:50:29.8740 p.m.,0.32,0.5,0.99,0.03,0.2,-0.09
2022-02-17 5:50:29.8840 p.m.,0.28,0.46,1.33,0.04,0.16,-0.07
2022-02-17 5:50:29.8940 p.m.,0.25,0.4,1.58,0.06,0.12,-0.04
2022-02-17 5:50:29.9040 p.m.,0.27,0.39,1.74,0.1,0.07,-0.01
2022-02-17 5:50:29.9140 p.m.,0.32,0.54,1.93,0.11,0.04,0.02
2022-02-17 5:50:29.9240 p.m.,0.28,0.63,2.01,0.08,0.05,0.07
2022-02-17 5:50:29.9340 p.m.,0.2,0.73,2.05,0.05,0.1,0.13
2022-02-17 5:50:29.9440 p.m.,0.08,0.94,2.08,-0.02,0.16,0.22
2022-02-17 5:50:29.9540 p.m.,-0.19,1.44,2.19,-0.12,0.22,0.33
2022-02-17 5:50:29.9650 p.m.,-0.19,1.44,2.19,-0.26,0.28,0.43
2022-02-17 5:50:29.9740 p.m.,-0.59,1.31,2.27,-0.43,0.35,0.53
2022-02-17 5:50:29.9850 p.m.,-0.59,1.31,2.27,-0.57,0.43,0.63
2022-02-17 5:50:29.9950 p.m.,-0.8,1.01,2.27,-0.68,0.43,0.71
2022-02-17 5:50:30.0050 p.m.,-0.96,0.67,2.41,-0.71,0.34,0.77
2022-02-17 5:50:30.0150 p.m.,-1.17,0.18,2.69,-0.66,0.15,0.8
2022-02-17 5:50:30.0250 p.m.,-1.28,-0.3,2.83,-0.53,-0.09,0.79
2022-02-17 5:50:30.0350 p.m.,-1.23,-0.71,2.68,-0.35,-0.32,0.75
2022-02-17 5:50:30.0450 p.m.,-1.15,-1.06,2.25,-0.13,-0.47,0.7
2022-02-17 5:50:30.0540 p.m.,-0.97,-1.33,1.59,0.08,-0.5,0.63
2022-02-17 5:50:30.0650 p.m.,-0.77,-1.45,0.71,0.25,-0.42,0.58
2022-02-17 5:50:30.0750 p.m.,-0.54,-1.43,-0.12,0.39,-0.28,0.54
2022-02-17 5:50:30.0850 p.m.,-0.3,-1.33,-0.71,0.48,-0.15,0.55
2022-02-17 5:50:30.0950 p.m.,-0.15,-1.14,-1.01,0.54,-0.02,0.56
2022-02-17 5:50:30.1050 p.m.,0.02,-0.92,-1.14,0.57,0.04,0.56
2022-02-17 5:50:30.1150 p.m.,0.1,-0.85,-1.15,0.57,0.06,0.52
2022-02-17 5:50:30.1250 p.m.,0.08,-0.91,-1.06,0.53,0.07,0.46
2022-02-17 5:50:30.1350 p.m.,0.05,-0.93,-0.91,0.48,0.1,0.41
2022-02-17 5:50:30.1450 p.m.,0.02,-0.82,-0.88,0.43,0.16,0.4
2022-02-17 5:50:30.1550 p.m.,0.02,-0.59,-0.99,0.36,0.24,0.41
2022-02-17 5:50:30.1650 p.m.,-0.03,-0.44,-1.07,0.27,0.31,0.48
2022-02-17 5:50:30.1750 p.m.,-0.13,-0.26,-1.02,0.15,0.35,0.58
2022-02-17 5:50:30.1850 p.m.,-0.15,-0.05,-0.87,0.03,0.33,0.68
2022-02-17 5:50:30.1950 p.m.,-0.21,-0.05,-0.63,-0.08,0.23,0.75
2022-02-17 5:50:30.2050 p.m.,-0.22,-0.25,-0.39,-0.17,0.06,0.76
2022-02-17 5:50:30.2150 p.m.,-0.21,-0.57,-0.15,-0.21,-0.16,0.72
2022-02-17 5:50:30.2250 p.m.,-0.18,-0.88,0.01,-0.2,-0.34,0.65
2022-02-17 5:50:30.2350 p.m.,-0.08,-1.07,-0.13,-0.16,-0.44,0.57
2022-02-17 5:50:30.2460 p.m.,0.05,-1.08,-0.59,-0.11,-0.46,0.49
2022-02-17 5:50:30.2550 p.m.,0.18,-0.99,-1.14,-0.09,-0.38,0.41
2022-02-17 5:50:30.2660 p.m.,0.27,-0.82,-1.64,-0.1,-0.25,0.35
2022-02-17 5:50:30.2750 p.m.,0.26,-0.6,-1.99,-0.11,-0.1,0.33
2022-02-17 5:50:30.2860 p.m.,0.2,-0.35,-2.16,-0.11,0.01,0.3
2022-02-17 5:50:30.2960 p.m.,0.11,-0.1,-2.15,-0.08,0.04,0.27
2022-02-17 5:50:30.3060 p.m.,-0.08,-0.03,-2.01,-0.04,0.01,0.22
2022-02-17 5:50:30.3160 p.m.,-0.26,-0.02,-1.85,-0.03,-0.04,0.18
2022-02-17 5:50:30.3260 p.m.,-0.36,0.07,-1.76,-0.03,-0.1,0.14
2022-02-17 5:50:30.3360 p.m.,-0.41,0.18,-1.8,-0.08,-0.1,0.11
2022-02-17 5:50:30.3460 p.m.,-0.39,0.31,-1.88,-0.14,-0.07,0.11
2022-02-17 5:50:30.3560 p.m.,-0.34,0.55,-1.92,-0.21,-0.02,0.14
2022-02-17 5:50:30.3660 p.m.,-0.32,0.79,-1.85,-0.25,0.02,0.17
2022-02-17 5:50:30.3760 p.m.,-0.26,0.95,-1.71,-0.28,0.02,0.17
2022-02-17 5:50:30.3860 p.m.,-0.21,0.95,-1.46,-0.29,-0.01,0.15
2022-02-17 5:50:30.3960 p.m.,-0.18,0.79,-1.13,-0.27,-0.08,0.1
2022-02-17 5:50:30.4060 p.m.,-0.12,0.69,-0.75,-0.23,-0.15,0.04
2022-02-17 5:50:30.4160 p.m.,-0.03,0.63,-0.42,-0.16,-0.22,-0.01
2022-02-17 5:50:30.4260 p.m.,0.12,0.71,-0.2,-0.1,-0.27,-0.05
2022-02-17 5:50:30.4360 p.m.,0.28,0.79,0.05,-0.02,-0.29,-0.11
2022-02-17 5:50:30.4470 p.m.,0.36,0.8,0.25,0.05,-0.28,-0.16
2022-02-17 5:50:30.4570 p.m.,0.47,0.82,0.31,0.1,-0.2,-0.2
2022-02-17 5:50:30.4670 p.m.,0.65,0.89,0.31,0.13,-0.08,-0.23
2022-02-17 5:50:30.4770 p.m.,0.81,1.01,0.37,0.13,0.07,-0.26
2022-02-17 5:50:30.4870 p.m.,0.88,1.03,0.6,0.11,0.19,-0.27
2022-02-17 5:50:30.4960 p.m.,0.81,0.96,0.99,0.05,0.29,-0.29
2022-02-17 5:50:30.5070 p.m.,0.67,0.93,1.62,-0.03,0.3,-0.3
2022-02-17 5:50:30.5170 p.m.,0.57,0.99,2.4,-0.07,0.2,-0.32
2022-02-17 5:50:30.5270 p.m.,0.44,0.99,3.14,-0.05,0.01,-0.33
2022-02-17 5:50:30.5370 p.m.,0.31,0.94,3.67,0.04,-0.24,-0.35
2022-02-17 5:50:30.5470 p.m.,0.27,0.97,3.79,0.14,-0.44,-0.36
2022-02-17 5:50:30.5570 p.m.,0.3,0.97,3.5,0.17,-0.51,-0.37
2022-02-17 5:50:30.5670 p.m.,0.6,1.06,2.83,0.13,-0.48,-0.38
2022-02-17 5:50:30.5770 p.m.,0.87,1.1,2.1,0.13,-0.48,-0.38
2022-02-17 5:50:30.5870 p.m.,0.87,0.92,1.46,-0.13,-0.1,-0.35
2022-02-17 5:50:30.5970 p.m.,0.85,0.7,1.04,-0.32,0.17,-0.3
2022-02-17 5:50:30.6070 p.m.,0.85,0.47,1.03,-0.45,0.27,-0.26
2022-02-17 5:50:30.6170 p.m.,0.69,0.08,1.55,-0.44,0.13,-0.3
2022-02-17 5:50:30.6270 p.m.,0.32,-0.64,2.27,-0.27,-0.15,-0.39
2022-02-17 5:50:30.6370 p.m.,0.12,-1.41,2.67,0.05,-0.51,-0.52
2022-02-17 5:50:30.6470 p.m.,0.02,-1.91,2.56,0.37,-0.78,-0.66
2022-02-17 5:50:30.6570 p.m.,0.03,-2.16,1.92,0.58,-0.81,-0.77
2022-02-17 5:50:30.6670 p.m.,0.28,-2.02,0.87,0.66,-0.7,-0.83
2022-02-17 5:50:30.6770 p.m.,0.64,-1.51,-0.05,0.63,-0.49,-0.83
2022-02-17 5:50:30.6870 p.m.,0.8,-1.07,-0.63,0.5,-0.21,-0.81
2022-02-17 5:50:30.6980 p.m.,0.93,-0.69,-0.99,0.35,0.06,-0.78
2022-02-17 5:50:30.7080 p.m.,1.01,-0.47,-1.07,0.2,0.28,-0.78
2022-02-17 5:50:30.7180 p.m.,0.89,-0.5,-0.85,0.11,0.41,-0.78
2022-02-17 5:50:30.7270 p.m.,0.64,-0.66,-0.47,0.08,0.46,-0.75
2022-02-17 5:50:30.7380 p.m.,0.4,-0.78,0.03,0.09,0.42,-0.71
2022-02-17 5:50:30.7480 p.m.,0.16,-0.87,0.51,0.14,0.33,-0.65
2022-02-17 5:50:30.7580 p.m.,-0.06,-0.97,0.87,0.21,0.25,-0.58
2022-02-17 5:50:30.7680 p.m.,-0.2,-1.03,0.9,0.24,0.22,-0.49
2022-02-17 5:50:30.7780 p.m.,-0.29,-1.05,0.71,0.22,0.24,-0.38
2022-02-17 5:50:30.7880 p.m.,-0.24,-0.97,0.48,0.18,0.26,-0.27
2022-02-17 5:50:30.7980 p.m.,-0.16,-0.91,0.33,0.11,0.22,-0.19
2022-02-17 5:50:30.8080 p.m.,-0.18,-1.0,0.33,0.05,0.12,-0.14
2022-02-17 5:50:30.8180 p.m.,-0.19,-1.12,0.35,0.0,-0.02,-0.12
2022-02-17 5:50:30.8280 p.m.,-0.21,-1.23,0.2,-0.02,-0.12,-0.1
2022-02-17 5:50:30.8380 p.m.,-0.14,-1.29,-0.14,-0.01,-0.17,-0.08
2022-02-17 5:50:30.8480 p.m.,-0.08,-1.28,-0.63,0.01,-0.15,-0.04
2022-02-17 5:50:30.8590 p.m.,-0.03,-1.19,-1.03,0.04,-0.1,0.0
2022-02-17 5:50:30.8680 p.m.,0.05,-1.03,-1.22,0.06,-0.06,0.05
2022-02-17 5:50:30.8780 p.m.,-0.01,-0.97,-1.31,0.06,-0.02,0.09
2022-02-17 5:50:30.8880 p.m.,0.0,-0.83,-1.34,0.04,0.0,0.12
2022-02-17 5:50:30.8980 p.m.,0.01,-0.66,-1.31,0.0,-0.02,0.14
2022-02-17 5:50:30.9090 p.m.,0.0,-0.59,-1.22,-0.02,-0.05,0.14
2022-02-17 5:50:30.9190 p.m.,-0.03,-0.55,-1.18,-0.02,-0.08,0.14
2022-02-17 5:50:30.9290 p.m.,-0.06,-0.46,-1.26,-0.0,-0.09,0.15
2022-02-17 5:50:30.9390 p.m.,-0.1,-0.41,-1.39,0.0,-0.07,0.19
2022-02-17 5:50:30.9490 p.m.,-0.14,-0.28,-1.49,-0.0,-0.02,0.25
2022-02-17 5:50:30.9590 p.m.,-0.12,-0.1,-1.5,-0.02,0.04,0.31
2022-02-17 5:50:30.9690 p.m.,-0.17,-0.01,-1.43,-0.01,0.07,0.37
2022-02-17 5:50:30.9790 p.m.,-0.23,-0.04,-1.27,0.02,0.06,0.4
2022-02-17 5:50:30.9890 p.m.,-0.23,-0.12,-1.04,0.1,0.01,0.4
2022-02-17 5:50:30.9990 p.m.,-0.26,-0.25,-0.87,0.19,-0.04,0.38
2022-02-17 5:50:31.0090 p.m.,-0.28,-0.37,-0.82,0.26,-0.04,0.36
2022-02-17 5:50:31.0190 p.m.,-0.21,-0.33,-0.94,0.28,0.03,0.37
2022-02-17 5:50:31.0290 p.m.,-0.04,-0.12,-1.17,0.26,0.15,0.38
2022-02-17 5:50:31.0390 p.m.,0.11,0.05,-1.31,0.24,0.27,0.39
2022-02-17 5:50:31.0490 p.m.,0.07,0.11,-1.26,0.22,0.39,0.44
2022-02-17 5:50:31.0590 p.m.,0.01,0.22,-1.12,0.19,0.52,0.53
2022-02-17 5:50:31.0690 p.m.,0.03,0.45,-0.81,0.17,0.55,0.6
2022-02-17 5:50:31.0790 p.m.,-0.11,0.45,-0.28,0.13,0.51,0.66
2022-02-17 5:50:31.0890 p.m.,-0.29,0.17,0.35,0.08,0.43,0.71
2022-02-17 5:50:31.0990 p.m.,-0.32,0.04,0.83,0.03,0.33,0.75
2022-02-17 5:50:31.1090 p.m.,-0.28,0.06,1.21,-0.01,0.26,0.79
2022-02-17 5:50:31.1200 p.m.,-0.18,0.12,1.39,-0.05,0.25,0.83
2022-02-17 5:50:31.1300 p.m.,-0.18,0.1,1.44,-0.08,0.29,0.89
2022-02-17 5:50:31.1390 p.m.,-0.27,0.05,1.46,-0.1,0.35,0.98
2022-02-17 5:50:31.1490 p.m.,-0.26,0.26,1.55,-0.14,0.41,1.09
2022-02-17 5:50:31.1600 p.m.,-0.3,0.5,1.67,-0.22,0.46,1.18
2022-02-17 5:50:31.1700 p.m.,-0.5,0.45,1.8,-0.33,0.48,1.28
2022-02-17 5:50:31.1800 p.m.,-0.77,0.24,1.98,-0.43,0.49,1.38
2022-02-17 5:50:31.1900 p.m.,-1.05,0.0,2.09,-0.48,0.41,1.49
2022-02-17 5:50:31.2000 p.m.,-1.27,-0.17,2.13,-0.46,0.28,1.56
2022-02-17 5:50:31.2100 p.m.,-1.55,-0.53,1.99,-0.39,0.14,1.59
2022-02-17 5:50:31.2200 p.m.,-1.97,-1.12,1.48,-0.35,0.11,1.59
2022-02-17 5:50:31.2300 p.m.,-2.23,-1.42,0.71,-0.44,0.28,1.62
2022-02-17 5:50:31.2400 p.m.,-2.19,-1.37,0.03,-0.65,0.49,1.67
2022-02-17 5:50:31.2500 p.m.,-1.91,-1.22,-0.24,-0.89,0.62,1.7
2022-02-17 5:50:31.2600 p.m.,-1.84,-1.18,-0.21,-1.07,0.62,1.71
2022-02-17 5:50:31.2670 p.m.,-1.85,-1.37,0.04,-1.06,0.44,1.65
2022-02-17 5:50:31.2830 p.m.,-1.94,-1.76,0.46,-0.83,0.19,1.55
2022-02-17 5:50:31.2930 p.m.,-2.21,-2.41,0.63,-0.47,-0.06,1.45
2022-02-17 5:50:31.3030 p.m.,-2.13,-2.52,0.49,-0.14,-0.15,1.38
2022-02-17 5:50:31.3130 p.m.,-1.96,-2.38,0.04,0.07,-0.09,1.35
2022-02-17 5:50:31.3230 p.m.,-1.64,-1.96,-0.41,0.11,0.04,1.33
2022-02-17 5:50:31.3330 p.m.,-1.27,-1.45,-0.62,0.03,0.21,1.33
2022-02-17 5:50:31.3440 p.m.,-1.17,-1.04,-0.61,-0.1,0.42,1.36
2022-02-17 5:50:31.3540 p.m.,-1.05,-0.62,-0.55,-0.23,0.63,1.4
2022-02-17 5:50:31.3640 p.m.,-0.95,-0.35,-0.45,-0.36,0.81,1.44
2022-02-17 5:50:31.3740 p.m.,-1.08,-0.32,-0.13,-0.45,0.92,1.46
2022-02-17 5:50:31.3840 p.m.,-1.32,-0.51,0.47,-0.5,0.96,1.5
2022-02-17 5:50:31.3940 p.m.,-1.6,-0.67,1.17,-0.52,0.93,1.55
2022-02-17 5:50:31.4040 p.m.,-1.81,-0.76,1.78,-0.51,0.87,1.63
2022-02-17 5:50:31.4140 p.m.,-1.96,-0.81,2.27,-0.51,0.8,1.72
2022-02-17 5:50:31.4240 p.m.,-1.99,-0.91,2.6,-0.51,0.67,1.78
2022-02-17 5:50:31.4340 p.m.,-1.95,-1.09,2.85,-0.45,0.46,1.81
2022-02-17 5:50:31.4440 p.m.,-1.91,-1.3,2.96,-0.31,0.16,1.79
2022-02-17 5:50:31.4540 p.m.,-1.87,-1.51,2.73,-0.14,-0.13,1.74
2022-02-17 5:50:31.4640 p.m.,-1.75,-1.6,2.12,0.01,-0.25,1.67
2022-02-17 5:50:31.4740 p.m.,-1.49,-1.42,1.14,0.13,-0.25,1.61
2022-02-17 5:50:31.4840 p.m.,-1.13,-1.13,0.04,0.19,-0.17,1.56
2022-02-17 5:50:31.4940 p.m.,-0.9,-0.83,-0.79,0.21,-0.01,1.52
2022-02-17 5:50:31.5040 p.m.,-0.71,-0.54,-1.3,0.23,0.21,1.51
2022-02-17 5:50:31.5140 p.m.,-0.67,-0.33,-1.7,0.25,0.42,1.52
2022-02-17 5:50:31.5240 p.m.,-0.59,-0.09,-1.81,0.28,0.55,1.52
2022-02-17 5:50:31.5340 p.m.,-0.74,-0.01,-1.58,0.32,0.61,1.52
2022-02-17 5:50:31.5440 p.m.,-0.95,-0.06,-1.17,0.37,0.6,1.52
2022-02-17 5:50:31.5540 p.m.,-1.08,-0.08,-0.76,0.4,0.57,1.51
2022-02-17 5:50:31.5640 p.m.,-1.23,-0.12,-0.48,0.38,0.52,1.49
2022-02-17 5:50:31.5740 p.m.,-1.38,-0.18,-0.25,0.32,0.47,1.51
2022-02-17 5:50:31.5850 p.m.,-1.51,-0.12,-0.04,0.24,0.44,1.54
2022-02-17 5:50:31.5950 p.m.,-1.57,-0.04,0.05,0.16,0.41,1.57
2022-02-17 5:50:31.6050 p.m.,-1.66,-0.03,0.07,0.07,0.38,1.6
2022-02-17 5:50:31.6150 p.m.,-1.77,-0.11,0.05,0.01,0.36,1.61
2022-02-17 5:50:31.6250 p.m.,-1.78,-0.23,0.03,-0.0,0.34,1.59
2022-02-17 5:50:31.6350 p.m.,-1.78,-0.36,-0.04,0.03,0.33,1.57
2022-02-17 5:50:31.6450 p.m.,-1.82,-0.51,-0.19,0.12,0.32,1.56
2022-02-17 5:50:31.6550 p.m.,-1.81,-0.54,-0.17,0.24,0.28,1.54
2022-02-17 5:50:31.6650 p.m.,-1.86,-0.57,-0.11,0.36,0.23,1.5
2022-02-17 5:50:31.6750 p.m.,-1.97,-0.72,-0.19,0.44,0.24,1.45
2022-02-17 5:50:31.6850 p.m.,-1.89,-0.73,-0.4,0.48,0.27,1.43
2022-02-17 5:50:31.6950 p.m.,-1.81,-0.63,-0.63,0.49,0.28,1.42
2022-02-17 5:50:31.7050 p.m.,-1.64,-0.42,-0.72,0.5,0.26,1.42
2022-02-17 5:50:31.7150 p.m.,-1.49,-0.23,-0.77,0.47,0.22,1.41
2022-02-17 5:50:31.7250 p.m.,-1.32,-0.12,-0.83,0.41,0.18,1.4
2022-02-17 5:50:31.7350 p.m.,-1.08,0.03,-0.81,0.33,0.16,1.37
2022-02-17 5:50:31.7450 p.m.,-0.8,0.11,-0.77,0.28,0.18,1.35
2022-02-17 5:50:31.7550 p.m.,-0.5,0.16,-0.67,0.26,0.2,1.31
2022-02-17 5:50:31.7650 p.m.,-0.32,0.15,-0.44,0.24,0.24,1.26
2022-02-17 5:50:31.7750 p.m.,-0.2,0.09,-0.06,0.25,0.26,1.2
2022-02-17 5:50:31.7850 p.m.,-0.05,0.13,0.38,0.29,0.26,1.15
2022-02-17 5:50:31.7950 p.m.,0.04,0.22,0.77,0.35,0.27,1.1
2022-02-17 5:50:31.8060 p.m.,0.08,0.24,1.05,0.43,0.3,1.06
2022-02-17 5:50:31.8160 p.m.,0.12,0.27,1.19,0.49,0.33,1.05
2022-02-17 5:50:31.8260 p.m.,0.26,0.4,1.24,0.48,0.39,1.06
2022-02-17 5:50:31.8360 p.m.,0.35,0.63,1.22,0.38,0.48,1.1
2022-02-17 5:50:31.8460 p.m.,0.47,0.91,1.22,0.21,0.57,1.14
2022-02-17 5:50:31.8560 p.m.,0.62,1.1,1.35,0.02,0.59,1.17
2022-02-17 5:50:31.8660 p.m.,0.57,1.06,1.62,-0.16,0.58,1.17
2022-02-17 5:50:31.8760 p.m.,0.42,0.81,1.89,-0.25,0.51,1.15
2022-02-17 5:50:31.8860 p.m.,0.25,0.48,2.05,-0.23,0.41,1.11
2022-02-17 5:50:31.8960 p.m.,-0.01,0.18,2.16,-0.14,0.31,1.11
2022-02-17 5:50:31.9060 p.m.,-0.44,-0.01,2.14,-0.08,0.28,1.16
2022-02-17 5:50:31.9160 p.m.,-0.59,0.08,2.03,-0.07,0.25,1.23
2022-02-17 5:50:31.9260 p.m.,-0.59,0.2,2.01,-0.1,0.15,1.25
2022-02-17 5:50:31.9360 p.m.,-0.71,0.11,2.14,-0.14,-0.01,1.24
2022-02-17 5:50:31.9460 p.m.,-0.79,-0.09,2.18,-0.15,-0.19,1.19
2022-02-17 5:50:31.9560 p.m.,-0.8,-0.33,1.98,-0.09,-0.33,1.11
2022-02-17 5:50:31.9690 p.m.,-0.62,-0.75,0.85,0.07,-0.4,1.01
2022-02-17 5:50:31.9790 p.m.,-0.59,-0.9,0.16,0.26,-0.36,0.9
2022-02-17 5:50:31.9890 p.m.,-0.42,-0.97,-0.42,0.46,-0.25,0.81
2022-02-17 5:50:31.9990 p.m.,-0.35,-0.96,-0.88,0.64,-0.11,0.71
2022-02-17 5:50:32.0090 p.m.,-0.19,-0.87,-1.09,0.74,0.03,0.65
2022-02-17 5:50:32.0190 p.m.,-0.01,-0.64,-1.13,0.75,0.15,0.6
2022-02-17 5:50:32.0290 p.m.,0.07,-0.45,-1.01,0.69,0.22,0.57
2022-02-17 5:50:32.0390 p.m.,0.14,-0.25,-0.79,0.58,0.24,0.56
2022-02-17 5:50:32.0490 p.m.,0.22,-0.07,-0.53,0.44,0.21,0.57
2022-02-17 5:50:32.0590 p.m.,0.3,0.03,-0.31,0.31,0.18,0.59
2022-02-17 5:50:32.0690 p.m.,0.41,0.0,-0.14,0.21,0.15,0.59
2022-02-17 5:50:32.0800 p.m.,0.36,-0.15,-0.16,0.16,0.2,0.57
2022-02-17 5:50:32.0900 p.m.,0.35,-0.21,-0.28,0.14,0.32,0.57
2022-02-17 5:50:32.1000 p.m.,0.32,-0.23,-0.26,0.15,0.48,0.58
2022-02-17 5:50:32.1100 p.m.,0.19,-0.39,-0.14,0.18,0.66,0.57
2022-02-17 5:50:32.1200 p.m.,0.02,-0.51,0.17,0.21,0.78,0.56
2022-02-17 5:50:32.1300 p.m.,-0.15,-0.59,0.59,0.22,0.82,0.57
2022-02-17 5:50:32.1400 p.m.,-0.33,-0.71,1.12,0.22,0.74,0.58
2022-02-17 5:50:32.1500 p.m.,-0.48,-0.83,1.5,0.23,0.57,0.58
2022-02-17 5:50:32.1600 p.m.,-0.57,-0.94,1.55,0.25,0.36,0.58
2022-02-17 5:50:32.1700 p.m.,-0.52,-0.94,1.29,0.25,0.17,0.59
2022-02-17 5:50:32.1800 p.m.,-0.38,-0.87,0.78,0.23,0.06,0.57
2022-02-17 5:50:32.1900 p.m.,-0.24,-0.8,0.14,0.2,0.02,0.56
2022-02-17 5:50:32.2000 p.m.,-0.08,-0.65,-0.39,0.16,0.02,0.56
2022-02-17 5:50:32.2100 p.m.,0.0,-0.52,-0.78,0.13,0.05,0.55
2022-02-17 5:50:32.2200 p.m.,0.04,-0.47,-1.03,0.08,0.1,0.55
2022-02-17 5:50:32.2300 p.m.,0.14,-0.34,-1.13,0.04,0.16,0.55
2022-02-17 5:50:32.2400 p.m.,0.21,-0.28,-1.17,0.03,0.19,0.54
2022-02-17 5:50:32.2500 p.m.,0.15,-0.39,-1.06,0.06,0.17,0.51
2022-02-17 5:50:32.2600 p.m.,0.12,-0.46,-0.99,0.11,0.14,0.46
2022-02-17 5:50:32.2700 p.m.,0.19,-0.29,-1.04,0.13,0.15,0.44
2022-02-17 5:50:32.2800 p.m.,0.27,-0.08,-1.11,0.13,0.14,0.41
2022-02-17 5:50:32.2900 p.m.,0.26,0.08,-1.13,0.1,0.14,0.39
2022-02-17 5:50:32.3000 p.m.,0.31,0.27,-1.13,0.04,0.14,0.39
2022-02-17 5:50:32.3100 p.m.,0.38,0.46,-1.12,-0.04,0.12,0.41
2022-02-17 5:50:32.3210 p.m.,0.41,0.55,-1.07,-0.1,0.09,0.41
2022-02-17 5:50:32.3300 p.m.,0.39,0.51,-1.04,-0.12,0.03,0.41
2022-02-17 5:50:32.3410 p.m.,0.39,0.43,-1.05,-0.11,-0.03,0.39
2022-02-17 5:50:32.3500 p.m.,0.45,0.45,-1.08,-0.09,-0.08,0.38
2022-02-17 5:50:32.3610 p.m.,0.51,0.43,-1.12,-0.05,-0.12,0.36
2022-02-17 5:50:32.3710 p.m.,0.58,0.43,-1.2,-0.02,-0.13,0.34
2022-02-17 5:50:32.3810 p.m.,0.73,0.51,-1.31,0.02,-0.11,0.32
2022-02-17 5:50:32.3910 p.m.,0.81,0.51,-1.4,0.07,-0.07,0.28
2022-02-17 5:50:32.4010 p.m.,0.89,0.48,-1.48,0.13,-0.02,0.23
2022-02-17 5:50:32.4110 p.m.,1.02,0.57,-1.54,0.17,0.06,0.18
2022-02-17 5:50:32.4210 p.m.,1.12,0.65,-1.56,0.18,0.16,0.14
2022-02-17 5:50:32.4310 p.m.,1.17,0.73,-1.4,0.17,0.26,0.12
2022-02-17 5:50:32.4410 p.m.,1.07,0.8,-1.12,0.16,0.36,0.11
2022-02-17 5:50:32.4510 p.m.,0.92,0.87,-0.73,0.15,0.44,0.11
2022-02-17 5:50:32.4610 p.m.,0.78,0.9,-0.31,0.13,0.5,0.11
2022-02-17 5:50:32.4710 p.m.,0.55,0.79,0.13,0.13,0.51,0.1
2022-02-17 5:50:32.4820 p.m.,0.31,0.68,0.56,0.14,0.48,0.08
2022-02-17 5:50:32.4910 p.m.,0.12,0.57,0.92,0.16,0.44,0.08
2022-02-17 5:50:32.5010 p.m.,-0.11,0.47,1.21,0.19,0.4,0.1
2022-02-17 5:50:32.5110 p.m.,-0.36,0.45,1.47,0.2,0.39,0.14
2022-02-17 5:50:32.5210 p.m.,-0.47,0.55,1.74,0.18,0.4,0.19
2022-02-17 5:50:32.5310 p.m.,-0.58,0.65,2.05,0.15,0.39,0.24
2022-02-17 5:50:32.5410 p.m.,-0.77,0.66,2.33,0.11,0.39,0.28
2022-02-17 5:50:32.5510 p.m.,-1.0,0.65,2.58,0.1,0.36,0.32
2022-02-17 5:50:32.5620 p.m.,-1.23,0.59,2.73,0.11,0.32,0.37
2022-02-17 5:50:32.5720 p.m.,-1.43,0.55,2.73,0.16,0.25,0.41
2022-02-17 5:50:32.5820 p.m.,-1.61,0.5,2.59,0.18,0.2,0.48
2022-02-17 5:50:32.5920 p.m.,-1.65,0.54,2.24,0.14,0.2,0.57
2022-02-17 5:50:32.6020 p.m.,-1.63,0.57,1.81,0.04,0.26,0.68
2022-02-17 5:50:32.6120 p.m.,-1.6,0.52,1.46,-0.08,0.33,0.79
2022-02-17 5:50:32.6220 p.m.,-1.58,0.34,1.13,-0.18,0.38,0.88
2022-02-17 5:50:32.6320 p.m.,-1.54,0.02,0.87,-0.24,0.4,0.93
2022-02-17 5:50:32.6420 p.m.,-1.55,-0.38,0.65,-0.27,0.37,0.94
2022-02-17 5:50:32.6520 p.m.,-1.6,-0.7,0.38,-0.3,0.33,0.93
2022-02-17 5:50:32.6620 p.m.,-1.58,-0.91,0.11,-0.32,0.32,0.92
2022-02-17 5:50:32.6720 p.m.,-1.57,-0.99,-0.13,-0.34,0.35,0.93
2022-02-17 5:50:32.6820 p.m.,-1.55,-0.98,-0.31,-0.33,0.42,0.98
2022-02-17 5:50:32.6920 p.m.,-1.49,-1.01,-0.4,-0.24,0.47,1.03
2022-02-17 5:50:32.7020 p.m.,-1.47,-1.23,-0.37,-0.1,0.48,1.05
2022-02-17 5:50:32.7120 p.m.,-1.42,-1.55,-0.27,0.09,0.42,1.04
2022-02-17 5:50:32.7220 p.m.,-1.3,-1.74,-0.3,0.27,0.35,0.98
2022-02-17 5:50:32.7320 p.m.,-1.12,-1.74,-0.52,0.39,0.31,0.91
2022-02-17 5:50:32.7420 p.m.,-0.9,-1.52,-0.81,0.44,0.34,0.87
2022-02-17 5:50:32.7520 p.m.,-0.71,-1.06,-1.03,0.4,0.42,0.87
2022-02-17 5:50:32.7620 p.m.,-0.62,-0.62,-1.06,0.33,0.51,0.91
2022-02-17 5:50:32.7720 p.m.,-0.65,-0.3,-0.97,0.21,0.6,0.98
2022-02-17 5:50:32.7820 p.m.,-0.66,-0.09,-0.74,0.07,0.65,1.05
2022-02-17 5:50:32.7920 p.m.,-0.78,-0.01,-0.39,-0.09,0.68,1.15
2022-02-17 5:50:32.8030 p.m.,-0.82,0.01,-0.08,-0.23,0.68,1.26
2022-02-17 5:50:32.8120 p.m.,-0.91,-0.14,0.4,-0.36,0.63,1.34
2022-02-17 5:50:32.8230 p.m.,-1.01,-0.47,0.97,-0.47,0.51,1.39
2022-02-17 5:50:32.8330 p.m.,-0.9,-0.7,1.38,-0.54,0.37,1.42
2022-02-17 5:50:32.8430 p.m.,-0.77,-0.91,1.55,-0.55,0.22,1.41
2022-02-17 5:50:32.8530 p.m.,-0.68,-1.14,1.52,-0.47,0.04,1.35
2022-02-17 5:50:32.8630 p.m.,-0.6,-1.33,1.29,-0.33,-0.11,1.27
2022-02-17 5:50:32.8730 p.m.,-0.39,-1.28,0.83,-0.19,-0.19,1.18
2022-02-17 5:50:32.8830 p.m.,-0.2,-1.13,0.2,-0.07,-0.17,1.1
2022-02-17 5:50:32.8930 p.m.,-0.1,-0.95,-0.45,0.03,-0.08,1.03
2022-02-17 5:50:32.9030 p.m.,-0.05,-0.76,-0.93,0.1,0.04,0.95
2022-02-17 5:50:32.9130 p.m.,-0.11,-0.55,-1.2,0.15,0.15,0.89
2022-02-17 5:50:32.9230 p.m.,-0.16,-0.29,-1.3,0.16,0.23,0.85
2022-02-17 5:50:32.9330 p.m.,-0.26,-0.06,-1.28,0.15,0.23,0.82
2022-02-17 5:50:32.9430 p.m.,-0.37,0.08,-1.27,0.11,0.22,0.79
2022-02-17 5:50:32.9530 p.m.,-0.41,0.23,-1.3,0.08,0.2,0.76
2022-02-17 5:50:32.9630 p.m.,-0.43,0.35,-1.39,0.06,0.18,0.73
2022-02-17 5:50:32.9730 p.m.,-0.46,0.49,-1.49,0.03,0.19,0.73
2022-02-17 5:50:32.9830 p.m.,-0.42,0.67,-1.53,-0.02,0.22,0.74
2022-02-17 5:50:32.9930 p.m.,-0.42,0.87,-1.53,-0.07,0.25,0.77
2022-02-17 5:50:33.0030 p.m.,-0.38,1.0,-1.44,-0.13,0.26,0.79
2022-02-17 5:50:33.0130 p.m.,-0.37,0.95,-1.24,-0.2,0.23,0.79
2022-02-17 5:50:33.0240 p.m.,-0.33,0.91,-1.09,-0.28,0.19,0.76
2022-02-17 5:50:33.0340 p.m.,-0.27,0.91,-0.97,-0.34,0.16,0.72
2022-02-17 5:50:33.0440 p.m.,-0.3,0.85,-0.87,-0.36,0.13,0.66
2022-02-17 5:50:33.0540 p.m.,-0.29,0.9,-0.76,-0.35,0.11,0.61
2022-02-17 5:50:33.0640 p.m.,-0.25,1.02,-0.67,-0.3,0.13,0.56
2022-02-17 5:50:33.0740 p.m.,-0.22,1.05,-0.58,-0.23,0.14,0.5
2022-02-17 5:50:33.0840 p.m.,-0.19,1.08,-0.41,-0.14,0.14,0.44
2022-02-17 5:50:33.0940 p.m.,-0.16,1.14,-0.25,-0.06,0.14,0.38
2022-02-17 5:50:33.1040 p.m.,-0.12,1.14,-0.19,0.04,0.11,0.33
2022-02-17 5:50:33.1140 p.m.,-0.03,1.14,-0.14,0.12,0.09,0.29
2022-02-17 5:50:33.1240 p.m.,0.11,1.09,0.0,0.17,0.07,0.26
2022-02-17 5:50:33.1340 p.m.,0.17,0.9,0.21,0.2,0.04,0.2
2022-02-17 5:50:33.1440 p.m.,0.19,0.64,0.42,0.21,-0.02,0.14
2022-02-17 5:50:33.1540 p.m.,0.27,0.42,0.59,0.24,-0.11,0.06
2022-02-17 5:50:33.1640 p.m.,0.38,0.25,0.69,0.3,-0.19,-0.03
2022-02-17 5:50:33.1740 p.m.,0.48,0.17,0.65,0.37,-0.22,-0.12
2022-02-17 5:50:33.1840 p.m.,0.62,0.11,0.58,0.41,-0.19,-0.19
2022-02-17 5:50:33.1940 p.m.,0.69,0.09,0.67,0.43,-0.12,-0.26
2022-02-17 5:50:33.2040 p.m.,0.69,0.14,0.95,0.44,-0.07,-0.31
2022-02-17 5:50:33.2140 p.m.,0.69,0.29,1.31,0.45,-0.05,-0.34
2022-02-17 5:50:33.2240 p.m.,0.66,0.37,1.63,0.48,-0.09,-0.38
2022-02-17 5:50:33.2340 p.m.,0.62,0.38,1.9,0.51,-0.17,-0.41
2022-02-17 5:50:33.2450 p.m.,0.73,0.58,1.95,0.5,-0.24,-0.43
2022-02-17 5:50:33.2540 p.m.,0.9,0.9,1.9,0.44,-0.29,-0.46
2022-02-17 5:50:33.2650 p.m.,1.03,1.07,1.7,0.32,-0.27,-0.5
2022-02-17 5:50:33.2750 p.m.,1.1,1.14,1.3,0.17,-0.13,-0.51
2022-02-17 5:50:33.2850 p.m.,1.09,1.1,1.07,-0.03,0.11,-0.49
2022-02-17 5:50:33.2950 p.m.,0.96,1.01,1.29,-0.25,0.35,-0.43
2022-02-17 5:50:33.3050 p.m.,0.75,0.8,1.86,-0.42,0.48,-0.36
2022-02-17 5:50:33.3150 p.m.,0.42,0.18,2.38,-0.47,0.48,-0.31
2022-02-17 5:50:33.3250 p.m.,0.24,-0.57,2.78,-0.41,0.36,-0.32
2022-02-17 5:50:33.3350 p.m.,0.11,-1.21,3.06,-0.25,0.08,-0.35
2022-02-17 5:50:33.3450 p.m.,-0.14,-1.8,3.15,-0.03,-0.32,-0.46
2022-02-17 5:50:33.3550 p.m.,-0.08,-2.05,2.82,0.17,-0.73,-0.58
2022-02-17 5:50:33.3650 p.m.,0.07,-2.1,1.88,0.27,-0.92,-0.7
2022-02-17 5:50:33.3750 p.m.,0.45,-1.86,0.74,0.3,-0.94,-0.77
2022-02-17 5:50:33.3850 p.m.,0.71,-1.56,-0.03,0.27,-0.85,-0.82
2022-02-17 5:50:33.3950 p.m.,0.84,-1.43,-0.55,0.22,-0.71,-0.85
2022-02-17 5:50:33.4050 p.m.,0.99,-1.41,-0.93,0.2,-0.51,-0.88
2022-02-17 5:50:33.4150 p.m.,1.04,-1.48,-1.09,0.22,-0.33,-0.93
2022-02-17 5:50:33.4250 p.m.,0.96,-1.57,-1.05,0.29,-0.19,-0.97
2022-02-17 5:50:33.4350 p.m.,0.95,-1.56,-0.87,0.39,-0.09,-1.0
2022-02-17 5:50:33.4460 p.m.,0.92,-1.56,-0.66,0.48,0.0,-1.03
2022-02-17 5:50:33.4550 p.m.,0.92,-1.47,-0.52,0.53,0.12,-1.02
2022-02-17 5:50:33.4650 p.m.,0.91,-1.29,-0.4,0.52,0.27,-0.97
2022-02-17 5:50:33.4760 p.m.,0.88,-1.13,-0.16,0.46,0.4,-0.89
2022-02-17 5:50:33.4850 p.m.,0.79,-1.1,0.25,0.37,0.47,-0.79
2022-02-17 5:50:33.4960 p.m.,0.65,-1.15,0.79,0.24,0.43,-0.69
2022-02-17 5:50:33.5060 p.m.,0.5,-1.29,1.32,0.12,0.31,-0.6
2022-02-17 5:50:33.5150 p.m.,0.39,-1.51,1.66,0.04,0.09,-0.53
2022-02-17 5:50:33.5260 p.m.,0.3,-1.76,1.74,0.03,-0.16,-0.49
2022-02-17 5:50:33.5360 p.m.,0.29,-1.95,1.59,0.09,-0.42,-0.47
2022-02-17 5:50:33.5460 p.m.,0.31,-2.09,1.09,0.18,-0.59,-0.46
2022-02-17 5:50:33.5560 p.m.,0.43,-2.08,0.3,0.26,-0.63,-0.46
2022-02-17 5:50:33.5660 p.m.,0.64,-1.91,-0.36,0.28,-0.56,-0.45
2022-02-17 5:50:33.5760 p.m.,0.68,-1.74,-0.78,0.28,-0.45,-0.43
2022-02-17 5:50:33.5860 p.m.,0.69,-1.53,-1.06,0.25,-0.32,-0.39
2022-02-17 5:50:33.5960 p.m.,0.69,-1.33,-1.11,0.2,-0.18,-0.33
2022-02-17 5:50:33.6060 p.m.,0.65,-1.2,-0.92,0.13,-0.11,-0.26
2022-02-17 5:50:33.6160 p.m.,0.54,-1.17,-0.63,0.07,-0.1,-0.21
2022-02-17 5:50:33.6260 p.m.,0.42,-1.19,-0.36,0.03,-0.12,-0.15
2022-02-17 5:50:33.6360 p.m.,0.34,-1.25,-0.13,0.02,-0.17,-0.13
2022-02-17 5:50:33.6460 p.m.,0.29,-1.38,-0.05,0.05,-0.21,-0.12
2022-02-17 5:50:33.6560 p.m.,0.27,-1.41,-0.07,0.07,-0.2,-0.11
2022-02-17 5:50:33.6660 p.m.,0.33,-1.28,-0.11,0.07,-0.12,-0.09
2022-02-17 5:50:33.6760 p.m.,0.35,-1.16,-0.1,0.06,-0.03,-0.06
2022-02-17 5:50:33.6860 p.m.,0.31,-1.13,-0.05,0.08,0.08,-0.04
2022-02-17 5:50:33.6960 p.m.,0.28,-1.13,0.08,0.13,0.17,-0.02
2022-02-17 5:50:33.7060 p.m.,0.21,-1.16,0.28,0.19,0.21,-0.02
2022-02-17 5:50:33.7160 p.m.,0.12,-1.2,0.46,0.28,0.2,-0.04
2022-02-17 5:50:33.7270 p.m.,0.04,-1.16,0.52,0.34,0.16,-0.06
2022-02-17 5:50:33.7360 p.m.,-0.02,-1.01,0.38,0.35,0.12,-0.06
2022-02-17 5:50:33.7470 p.m.,0.0,-0.69,0.16,0.28,0.11,-0.03
2022-02-17 5:50:33.7570 p.m.,0.04,-0.41,-0.02,0.15,0.13,0.02
2022-02-17 5:50:33.7670 p.m.,0.0,-0.28,-0.06,-0.01,0.14,0.07
2022-02-17 5:50:33.7770 p.m.,-0.1,-0.14,0.01,-0.17,0.14,0.13
2022-02-17 5:50:33.7870 p.m.,-0.21,0.01,0.17,-0.32,0.11,0.21
2022-02-17 5:50:33.7970 p.m.,-0.38,-0.02,0.34,-0.39,0.03,0.28
2022-02-17 5:50:33.8070 p.m.,-0.48,-0.19,0.48,-0.39,-0.09,0.32
2022-02-17 5:50:33.8170 p.m.,-0.59,-0.51,0.46,-0.33,-0.24,0.3
2022-02-17 5:50:33.8270 p.m.,-0.58,-0.78,0.27,-0.24,-0.36,0.26
2022-02-17 5:50:33.8370 p.m.,-0.43,-0.84,-0.09,-0.17,-0.38,0.2
2022-02-17 5:50:33.8470 p.m.,-0.24,-0.73,-0.5,-0.14,-0.31,0.15
2022-02-17 5:50:33.8570 p.m.,-0.14,-0.64,-0.75,-0.14,-0.2,0.1
2022-02-17 5:50:33.8670 p.m.,-0.15,-0.55,-0.81,-0.15,-0.11,0.06
2022-02-17 5:50:33.8770 p.m.,-0.14,-0.35,-0.73,-0.21,-0.03,0.05
2022-02-17 5:50:33.8870 p.m.,-0.13,-0.19,-0.53,-0.28,-0.01,0.03
2022-02-17 5:50:33.8970 p.m.,-0.25,-0.19,-0.3,-0.32,-0.04,0.01
2022-02-17 5:50:33.9070 p.m.,-0.3,-0.22,-0.2,-0.31,-0.08,-0.02
2022-02-17 5:50:33.9170 p.m.,-0.38,-0.27,-0.2,-0.27,-0.08,-0.07
2022-02-17 5:50:33.9270 p.m.,-0.4,-0.27,-0.28,-0.22,-0.04,-0.11
2022-02-17 5:50:33.9370 p.m.,-0.36,-0.09,-0.37,-0.2,0.06,-0.12
2022-02-17 5:50:33.9480 p.m.,-0.41,0.14,-0.34,-0.21,0.17,-0.11
2022-02-17 5:50:33.9570 p.m.,-0.49,0.32,-0.07,-0.28,0.26,-0.07
2022-02-17 5:50:33.9680 p.m.,-0.6,0.37,0.34,-0.36,0.31,-0.03
2022-02-17 5:50:33.9780 p.m.,-0.8,0.2,0.88,-0.4,0.3,-0.0
2022-02-17 5:50:33.9880 p.m.,-1.04,-0.05,1.27,-0.36,0.21,0.0
2022-02-17 5:50:33.9980 p.m.,-1.18,-0.24,1.41,-0.28,0.12,0.01
2022-02-17 5:50:34.0080 p.m.,-1.22,-0.4,1.35,-0.17,0.03,-0.0
2022-02-17 5:50:34.0180 p.m.,-1.36,-0.55,1.27,-0.09,-0.08,-0.05
2022-02-17 5:50:34.0280 p.m.,-1.21,-0.53,0.95,-0.06,-0.11,-0.07
2022-02-17 5:50:34.0380 p.m.,-1.02,-0.31,0.43,-0.05,-0.09,-0.07
2022-02-17 5:50:34.0480 p.m.,-0.91,-0.13,-0.02,-0.08,-0.02,-0.05
2022-02-17 5:50:34.0580 p.m.,-0.74,0.04,-0.26,-0.12,0.05,-0.03
2022-02-17 5:50:34.0680 p.m.,-0.66,0.05,-0.4,-0.18,0.1,-0.02
2022-02-17 5:50:34.0780 p.m.,-0.6,0.0,-0.44,-0.25,0.14,-0.01
2022-02-17 5:50:34.0880 p.m.,-0.51,-0.04,-0.41,-0.32,0.18,-0.01
2022-02-17 5:50:34.0980 p.m.,-0.53,-0.16,-0.31,-0.34,0.17,-0.02
2022-02-17 5:50:34.1080 p.m.,-0.58,-0.28,-0.25,-0.32,0.15,-0.03
2022-02-17 5:50:34.1180 p.m.,-0.56,-0.37,-0.25,-0.3,0.15,-0.04
2022-02-17 5:50:34.1280 p.m.,-0.52,-0.41,-0.24,-0.27,0.16,-0.06
2022-02-17 5:50:34.1380 p.m.,-0.51,-0.37,-0.19,-0.26,0.18,-0.07
2022-02-17 5:50:34.1480 p.m.,-0.49,-0.28,-0.06,-0.24,0.21,-0.05
2022-02-17 5:50:34.1580 p.m.,-0.54,-0.25,0.09,-0.19,0.2,-0.04
2022-02-17 5:50:34.1680 p.m.,-0.6,-0.26,0.26,-0.14,0.14,-0.02
2022-02-17 5:50:34.1780 p.m.,-0.59,-0.28,0.33,-0.12,0.08,0.0
2022-02-17 5:50:34.1890 p.m.,-0.55,-0.25,0.27,-0.12,0.02,0.03
2022-02-17 5:50:34.1990 p.m.,-0.47,-0.14,0.16,-0.14,-0.03,0.06
2022-02-17 5:50:34.2090 p.m.,-0.43,-0.15,0.05,-0.19,-0.07,0.07
2022-02-17 5:50:34.2190 p.m.,-0.32,-0.17,-0.02,-0.27,-0.05,0.08
2022-02-17 5:50:34.2290 p.m.,-0.25,-0.23,-0.01,-0.3,-0.03,0.07
2022-02-17 5:50:34.2390 p.m.,-0.25,-0.4,0.05,-0.27,-0.01,0.05
2022-02-17 5:50:34.2490 p.m.,-0.26,-0.53,0.12,-0.2,-0.02,0.01
2022-02-17 5:50:34.2590 p.m.,-0.24,-0.61,0.25,-0.11,-0.08,-0.04
2022-02-17 5:50:34.2690 p.m.,-0.19,-0.59,0.3,-0.02,-0.15,-0.09
2022-02-17 5:50:34.2790 p.m.,-0.08,-0.45,0.11,0.06,-0.17,-0.11
2022-02-17 5:50:34.2890 p.m.,0.1,-0.19,-0.2,0.11,-0.12,-0.12
2022-02-17 5:50:34.2990 p.m.,0.23,0.09,-0.41,0.13,-0.03,-0.13
2022-02-17 5:50:34.3090 p.m.,0.29,0.29,-0.45,0.11,0.08,-0.12
2022-02-17 5:50:34.3190 p.m.,0.3,0.47,-0.37,0.09,0.18,-0.11
2022-02-17 5:50:34.3290 p.m.,0.22,0.58,-0.22,0.06,0.26,-0.11
2022-02-17 5:50:34.3390 p.m.,0.08,0.65,0.04,0.05,0.28,-0.1
2022-02-17 5:50:34.3490 p.m.,-0.05,0.76,0.32,0.04,0.27,-0.07
2022-02-17 5:50:34.3590 p.m.,-0.15,0.91,0.53,0.05,0.24,-0.02
2022-02-17 5:50:34.3690 p.m.,-0.25,1.04,0.64,0.05,0.22,0.06
2022-02-17 5:50:34.3790 p.m.,-0.3,1.15,0.68,0.03,0.24,0.15
2022-02-17 5:50:34.3890 p.m.,-0.3,1.18,0.85,-0.03,0.25,0.23
2022-02-17 5:50:34.3990 p.m.,-0.4,1.07,1.13,-0.08,0.19,0.28
2022-02-17 5:50:34.4100 p.m.,-0.58,0.88,1.26,-0.07,0.08,0.32
2022-02-17 5:50:34.4190 p.m.,-0.7,0.74,1.11,-0.0,-0.03,0.35
2022-02-17 5:50:34.4290 p.m.,-0.74,0.64,0.78,0.09,-0.15,0.36
2022-02-17 5:50:34.4390 p.m.,-0.75,0.6,0.31,0.19,-0.23,0.37
2022-02-17 5:50:34.4500 p.m.,-0.64,0.69,-0.27,0.23,-0.26,0.39
2022-02-17 5:50:34.4600 p.m.,-0.47,0.82,-0.81,0.22,-0.24,0.42
2022-02-17 5:50:34.4700 p.m.,-0.34,1.0,-1.18,0.19,-0.21,0.47
2022-02-17 5:50:34.4800 p.m.,-0.2,1.19,-1.47,0.14,-0.18,0.53
2022-02-17 5:50:34.4900 p.m.,-0.07,1.31,-1.57,0.07,-0.17,0.58
2022-02-17 5:50:34.5000 p.m.,-0.02,1.33,-1.59,0.01,-0.19,0.61
2022-02-17 5:50:34.5100 p.m.,0.02,1.28,-1.63,-0.06,-0.2,0.62
2022-02-17 5:50:34.5200 p.m.,0.11,1.26,-1.68,-0.1,-0.17,0.61
2022-02-17 5:50:34.5300 p.m.,0.12,1.27,-1.73,-0.1,-0.1,0.58
2022-02-17 5:50:34.5400 p.m.,0.11,1.36,-1.73,-0.07,0.02,0.58
2022-02-17 5:50:34.5500 p.m.,0.14,1.5,-1.63,-0.04,0.16,0.6
2022-02-17 5:50:34.5600 p.m.,0.09,1.59,-1.27,-0.03,0.28,0.63
2022-02-17 5:50:34.5700 p.m.,-0.03,1.55,-0.73,-0.02,0.33,0.64
2022-02-17 5:50:34.5800 p.m.,-0.18,1.44,-0.14,-0.03,0.29,0.65
2022-02-17 5:50:34.5900 p.m.,-0.31,1.4,0.27,-0.04,0.2,0.67
2022-02-17 5:50:34.6000 p.m.,-0.4,1.39,0.54,-0.05,0.08,0.69
2022-02-17 5:50:34.6100 p.m.,-0.39,1.41,0.62,-0.08,-0.03,0.73
2022-02-17 5:50:34.6200 p.m.,-0.27,1.4,0.51,-0.11,-0.09,0.75
2022-02-17 5:50:34.6300 p.m.,-0.19,1.34,0.29,-0.14,-0.11,0.77
2022-02-17 5:50:34.6400 p.m.,-0.05,1.32,0.07,-0.14,-0.08,0.79
2022-02-17 5:50:34.6500 p.m.,0.07,1.28,-0.05,-0.12,-0.03,0.8
2022-02-17 5:50:34.6600 p.m.,0.14,1.14,-0.03,-0.07,0.01,0.79
2022-02-17 5:50:34.6710 p.m.,0.16,0.95,0.04,-0.02,0.02,0.75
2022-02-17 5:50:34.6800 p.m.,0.23,0.85,0.11,0.02,0.01,0.71
2022-02-17 5:50:34.6910 p.m.,0.29,0.81,0.11,0.04,0.01,0.67
2022-02-17 5:50:34.7010 p.m.,0.34,0.82,0.08,0.03,0.03,0.64
2022-02-17 5:50:34.7110 p.m.,0.44,0.91,0.12,0.01,0.08,0.61
2022-02-17 5:50:34.7210 p.m.,0.44,0.87,0.22,0.03,0.12,0.58
2022-02-17 5:50:34.7310 p.m.,0.36,0.74,0.36,0.06,0.15,0.54
2022-02-17 5:50:34.7410 p.m.,0.35,0.68,0.46,0.11,0.19,0.49
2022-02-17 5:50:34.7510 p.m.,0.31,0.57,0.48,0.19,0.23,0.42
2022-02-17 5:50:34.7610 p.m.,0.27,0.47,0.48,0.25,0.27,0.36
2022-02-17 5:50:34.7710 p.m.,0.22,0.52,0.5,0.28,0.37,0.31
2022-02-17 5:50:34.7810 p.m.,0.11,0.6,0.59,0.29,0.48,0.28
2022-02-17 5:50:34.7910 p.m.,-0.1,0.63,0.74,0.26,0.58,0.27
2022-02-17 5:50:34.8010 p.m.,-0.34,0.7,1.05,0.2,0.66,0.31
2022-02-17 5:50:34.8110 p.m.,-0.58,0.78,1.51,0.13,0.67,0.37
2022-02-17 5:50:34.8210 p.m.,-0.85,0.69,1.95,0.07,0.59,0.42
2022-02-17 5:50:34.8310 p.m.,-0.98,0.55,2.18,0.0,0.48,0.46
2022-02-17 5:50:34.8410 p.m.,-0.97,0.48,2.12,-0.05,0.37,0.51
2022-02-17 5:50:34.8510 p.m.,-0.89,0.4,1.82,-0.11,0.3,0.56
2022-02-17 5:50:34.8610 p.m.,-0.74,0.32,1.45,-0.17,0.29,0.6
2022-02-17 5:50:34.8720 p.m.,-0.56,0.26,1.08,-0.22,0.32,0.65
2022-02-17 5:50:34.8810 p.m.,-0.39,0.19,0.72,-0.27,0.37,0.69
2022-02-17 5:50:34.8920 p.m.,-0.23,0.06,0.46,-0.32,0.44,0.72
2022-02-17 5:50:34.9010 p.m.,-0.17,-0.13,0.33,-0.36,0.48,0.75
2022-02-17 5:50:34.9120 p.m.,-0.19,-0.38,0.38,-0.39,0.48,0.75
2022-02-17 5:50:34.9220 p.m.,-0.29,-0.67,0.46,-0.38,0.46,0.75
2022-02-17 5:50:34.9320 p.m.,-0.4,-0.87,0.42,-0.31,0.45,0.76
2022-02-17 5:50:34.9420 p.m.,-0.49,-1.0,0.36,-0.21,0.43,0.79
2022-02-17 5:50:34.9520 p.m.,-0.51,-1.09,0.38,-0.08,0.4,0.81
2022-02-17 5:50:34.9620 p.m.,-0.54,-1.22,0.42,0.1,0.36,0.81
2022-02-17 5:50:34.9720 p.m.,-0.6,-1.39,0.35,0.3,0.28,0.79
2022-02-17 5:50:34.9820 p.m.,-0.63,-1.49,0.06,0.48,0.24,0.75
2022-02-17 5:50:34.9920 p.m.,-0.5,-1.35,-0.36,0.59,0.25,0.73
2022-02-17 5:50:35.0020 p.m.,-0.37,-1.08,-0.74,0.61,0.3,0.73
2022-02-17 5:50:35.0120 p.m.,-0.34,-0.89,-0.96,0.57,0.32,0.74
2022-02-17 5:50:35.0220 p.m.,-0.39,-0.78,-1.04,0.47,0.34,0.77
2022-02-17 5:50:35.0320 p.m.,-0.3,-0.54,-1.08,0.33,0.36,0.83
2022-02-17 5:50:35.0420 p.m.,-0.22,-0.4,-1.07,0.17,0.39,0.9
2022-02-17 5:50:35.0520 p.m.,-0.27,-0.31,-1.01,0.01,0.4,0.99
2022-02-17 5:50:35.0620 p.m.,-0.23,-0.22,-0.82,-0.16,0.38,1.08
2022-02-17 5:50:35.0720 p.m.,-0.23,-0.29,-0.49,-0.33,0.32,1.14
2022-02-17 5:50:35.0820 p.m.,-0.23,-0.54,-0.24,-0.47,0.25,1.18
2022-02-17 5:50:35.0920 p.m.,-0.19,-0.78,-0.06,-0.55,0.19,1.17
2022-02-17 5:50:35.1020 p.m.,-0.21,-1.01,0.06,-0.53,0.12,1.14
2022-02-17 5:50:35.1120 p.m.,-0.23,-1.07,0.17,-0.46,0.03,1.09
2022-02-17 5:50:35.1220 p.m.,-0.22,-1.07,0.23,-0.38,-0.03,1.03
2022-02-17 5:50:35.1320 p.m.,-0.22,-1.04,0.1,-0.29,-0.06,0.96
2022-02-17 5:50:35.1420 p.m.,-0.16,-0.89,-0.17,-0.19,-0.05,0.9
2022-02-17 5:50:35.1530 p.m.,-0.06,-0.7,-0.46,-0.09,0.01,0.84
2022-02-17 5:50:35.1630 p.m.,-0.05,-0.58,-0.73,0.01,0.07,0.79
2022-02-17 5:50:35.1730 p.m.,-0.05,-0.43,-0.93,0.09,0.14,0.74
2022-02-17 5:50:35.1830 p.m.,-0.01,-0.2,-1.04,0.13,0.21,0.71
2022-02-17 5:50:35.1930 p.m.,-0.07,-0.01,-1.07,0.14,0.23,0.7
2022-02-17 5:50:35.2030 p.m.,-0.11,0.12,-1.07,0.12,0.25,0.69
2022-02-17 5:50:35.2130 p.m.,-0.12,0.3,-1.0,0.06,0.24,0.7
2022-02-17 5:50:35.2230 p.m.,-0.24,0.38,-0.9,-0.02,0.21,0.71
2022-02-17 5:50:35.2330 p.m.,-0.29,0.42,-0.73,-0.1,0.19,0.72
2022-02-17 5:50:35.2430 p.m.,-0.32,0.54,-0.65,-0.16,0.17,0.74
2022-02-17 5:50:35.2530 p.m.,-0.35,0.59,-0.6,-0.19,0.15,0.76
2022-02-17 5:50:35.2630 p.m.,-0.4,0.61,-0.5,-0.19,0.13,0.77
2022-02-17 5:50:35.2730 p.m.,-0.43,0.59,-0.42,-0.16,0.08,0.76
2022-02-17 5:50:35.2800 p.m.,-0.44,0.61,-0.43,-0.12,0.03,0.73
2022-02-17 5:50:35.2900 p.m.,-0.42,0.58,-0.44,-0.09,-0.01,0.7
2022-02-17 5:50:35.3000 p.m.,-0.38,0.61,-0.52,-0.1,-0.01,0.67
2022-02-17 5:50:35.3110 p.m.,-0.36,0.7,-0.66,-0.13,0.01,0.66
2022-02-17 5:50:35.3210 p.m.,-0.3,0.9,-0.75,-0.16,0.01,0.67
2022-02-17 5:50:35.3310 p.m.,-0.29,1.06,-0.74,-0.17,-0.0,0.66
2022-02-17 5:50:35.3410 p.m.,-0.3,1.11,-0.69,-0.15,-0.04,0.64
2022-02-17 5:50:35.3510 p.m.,-0.28,1.09,-0.62,-0.1,-0.11,0.59
2022-02-17 5:50:35.3610 p.m.,-0.29,0.99,-0.54,-0.02,-0.19,0.53
Time,-0.29,0.88,-0.62,0.04,-0.22,0.47
2022-02-17 5:50:35.3810 p.m.,-0.14,0.92,-0.87,0.06,-0.19,0.42
2022-02-17 5:50:35.3910 p.m.,0.01,1.05,-1.19,0.05,-0.13,0.38
2022-02-17 5:50:35.4010 p.m.,0.14,1.24,-1.45,-0.0,-0.07,0.36
2022-02-17 5:50:35.4110 p.m.,0.26,1.48,-1.57,-0.07,0.01,0.37
2022-02-17 5:50:35.4210 p.m.,0.36,1.69,-1.47,-0.15,0.02,0.38
2022-02-17 5:50:35.4310 p.m.,0.44,1.77,-1.08,-0.2,-0.04,0.35
2022-02-17 5:50:35.4410 p.m.,0.39,1.59,-0.54,-0.21,-0.13,0.3
2022-02-17 5:50:35.4510 p.m.,0.37,1.26,-0.06,-0.14,-0.23,0.22
2022-02-17 5:50:35.4610 p.m.,0.38,0.97,0.25,-0.05,-0.29,0.14
2022-02-17 5:50:35.4710 p.m.,0.43,0.77,0.4,0.01,-0.26,0.05
2022-02-17 5:50:35.4810 p.m.,0.57,0.71,0.42,0.05,-0.18,-0.01
2022-02-17 5:50:35.4910 p.m.,0.71,0.8,0.4,0.03,-0.07,-0.05
2022-02-17 5:50:35.5010 p.m.,0.79,0.98,0.56,-0.03,0.01,-0.07
2022-02-17 5:50:35.5110 p.m.,0.79,1.18,0.95,-0.09,0.03,-0.1
2022-02-17 5:50:35.5210 p.m.,0.69,1.24,1.51,-0.11,-0.0,-0.14
2022-02-17 5:50:35.5320 p.m.,0.55,1.19,1.99,-0.04,-0.11,-0.21
2022-02-17 5:50:35.5420 p.m.,0.47,1.1,2.35,0.1,-0.27,-0.29
2022-02-17 5:50:35.5520 p.m.,0.34,0.98,2.52,0.26,-0.38,-0.35
2022-02-17 5:50:35.5610 p.m.,0.32,1.0,2.4,0.34,-0.37,-0.37
2022-02-17 5:50:35.5720 p.m.,0.51,1.2,2.0,0.31,-0.28,-0.37
2022-02-17 5:50:35.5820 p.m.,0.8,1.39,1.66,0.2,-0.18,-0.36
2022-02-17 5:50:35.5920 p.m.,1.01,1.54,1.58,0.06,-0.1,-0.36
2022-02-17 5:50:35.6020 p.m.,1.11,1.53,1.7,-0.09,-0.04,-0.38
Time,1.09,1.32,1.9,-0.2,0.01,-0.4
2022-02-17 5:50:35.6220 p.m.,1.04,0.99,2.08,-0.23,0.05,-0.44
2022-02-17 5:50:35.6320 p.m.,0.85,0.5,2.21,-0.15,0.04,-0.49
2022-02-17 5:50:35.6420 p.m.,0.62,0.0,2.29,-0.06,0.0,-0.54
2022-02-17 5:50:35.6520 p.m.,0.42,-0.43,2.47,0.04,-0.08,-0.59
2022-02-17 5:50:35.6620 p.m.,0.24,-0.77,2.55,0.16,-0.2,-0.64
2022-02-17 5:50:35.6720 p.m.,0.07,-1.02,2.37,0.26,-0.29,-0.68
2022-02-17 5:50:35.6820 p.m.,-0.02,-1.23,2.0,0.33,-0.36,-0.73
2022-02-17 5:50:35.6920 p.m.,0.0,-1.33,1.52,0.39,-0.41,-0.79
2022-02-17 5:50:35.7020 p.m.,0.02,-1.43,0.95,0.45,-0.44,-0.87
2022-02-17 5:50:35.7120 p.m.,0.1,-1.47,0.4,0.52,-0.43,-0.93
2022-02-17 5:50:35.7220 p.m.,0.19,-1.46,-0.15,0.56,-0.36,-0.98
2022-02-17 5:50:35.7320 p.m.,0.28,-1.39,-0.69,0.58,-0.24,-1.02
2022-02-17 5:50:35.7420 p.m.,0.4,-1.25,-1.13,0.55,-0.1,-1.01
2022-02-17 5:50:35.7520 p.m.,0.44,-1.06,-1.35,0.53,-0.01,-0.99
2022-02-17 5:50:35.7620 p.m.,0.5,-0.85,-1.27,0.5,0.06,-0.97
2022-02-17 5:50:35.7720 p.m.,0.5,-0.76,-1.1,0.48,0.11,-0.95
2022-02-17 5:50:35.7820 p.m.,0.54,-0.72,-0.9,0.48,0.14,-0.92
2022-02-17 5:50:35.7930 p.m.,0.55,-0.71,-0.68,0.48,0.18,-0.89
2022-02-17 5:50:35.8030 p.m.,0.58,-0.67,-0.57,0.45,0.25,-0.85
2022-02-17 5:50:35.8130 p.m.,0.7,-0.55,-0.5,0.39,0.34,-0.8
2022-02-17 5:50:35.8230 p.m.,0.78,-0.44,-0.39,0.32,0.42,-0.74
2022-02-17 5:50:35.8330 p.m.,0.79,-0.39,-0.18,0.24,0.45,-0.67
2022-02-17 5:50:35.8430 p.m.,0.74,-0.4,0.15,0.16,0.41,-0.59
2022-02-17 5:50:35.8530 p.m.,0.62,-0.43,0.52,0.08,0.32,-0.52
2022-02-17 5:50:35.8630 p.m.,0.49,-0.53,0.88,0.01,0.19,-0.48
2022-02-17 5:50:35.8730 p.m.,0.42,-0.8,1.14,-0.01,0.01,-0.47
2022-02-17 5:50:35.8830 p.m.,0.33,-1.05,1.27,0.02,-0.18,-0.47
2022-02-17 5:50:35.8930 p.m.,0.2,-1.29,1.14,0.08,-0.3,-0.48
2022-02-17 5:50:35.9030 p.m.,0.16,-1.41,0.76,0.16,-0.35,-0.48
2022-02-17 5:50:35.9130 p.m.,0.19,-1.32,0.13,0.22,-0.35,-0.46
2022-02-17 5:50:35.9230 p.m.,0.2,-1.21,-0.52,0.23,-0.31,-0.44
2022-02-17 5:50:35.9330 p.m.,0.27,-1.05,-1.07,0.19,-0.28,-0.42
2022-02-17 5:50:35.9430 p.m.,0.29,-0.89,-1.4,0.13,-0.27,-0.39
2022-02-17 5:50:35.9530 p.m.,0.3,-0.75,-1.59,0.09,-0.32,-0.37
2022-02-17 5:50:35.9570 p.m.,0.21,-0.62,-1.83,0.05,-0.37,-0.36
2022-02-17 5:50:35.9710 p.m.,0.21,-0.62,-1.83,0.01,-0.41,-0.35
2022-02-17 5:50:35.9800 p.m.,0.21,-0.53,-2.01,-0.02,-0.41,-0.33
2022-02-17 5:50:35.9900 p.m.,0.25,-0.43,-2.19,-0.04,-0.38,-0.32
2022-02-17 5:50:36.0000 p.m.,0.24,-0.3,-2.39,-0.05,-0.32,-0.3
2022-02-17 5:50:36.0100 p.m.,0.24,-0.3,-2.39,-0.08,-0.25,-0.26
2022-02-17 5:50:36.0210 p.m.,0.23,-0.13,-2.38,-0.14,-0.16,-0.23
2022-02-17 5:50:36.0300 p.m.,0.28,0.03,-2.27,-0.2,-0.1,-0.21
2022-02-17 5:50:36.0420 p.m.,0.28,0.1,-2.06,-0.25,-0.08,-0.2
2022-02-17 5:50:36.0500 p.m.,0.2,0.06,-1.79,-0.27,-0.07,-0.19
2022-02-17 5:50:36.0570 p.m.,0.17,0.07,-1.51,-0.22,-0.1,-0.18
2022-02-17 5:50:36.0690 p.m.,0.11,0.07,-1.24,-0.15,-0.11,-0.18
2022-02-17 5:50:36.0800 p.m.,0.08,0.05,-1.11,-0.1,-0.08,-0.18
2022-02-17 5:50:36.0890 p.m.,0.16,0.11,-1.08,-0.08,-0.0,-0.17
2022-02-17 5:50:36.1010 p.m.,0.3582029159367084,0.45,-0.97,-0.1,0.1,-0.15
2022-02-17 5:50:36.1110 p.m.,0.35,0.45,-0.97,-0.14,0.2,-0.14
2022-02-17 5:50:36.1210 p.m.,0.44,0.58,-0.7,-0.14,0.2,-0.14
2022-02-17 5:50:36.1310 p.m.,0.43,0.61,-0.24,-0.19,0.28,-0.1
2022-02-17 5:50:36.1410 p.m.,0.34,0.62,0.65,-0.19,0.28,-0.08
2022-02-17 5:50:36.1510 p.m.,0.34,0.62,0.65,-0.15,0.24,-0.06
2022-02-17 5:50:36.1610 p.m.,0.29,0.55,0.99,-0.08,0.17,-0.05
2022-02-17 5:50:36.1710 p.m.,0.23,0.46,1.28,-0.02,0.14,-0.03
2022-02-17 5:50:36.1810 p.m.,0.22,0.39,1.41,0.03,0.17,0.0
2022-02-17 5:50:36.1910 p.m.,0.31,0.46,1.39,0.02,0.25,0.03
2022-02-17 5:50:36.2010 p.m.,0.45,0.61,1.43,-0.03,0.33,0.04
2022-02-17 5:50:36.2110 p.m.,0.43,0.61,1.65,-0.08,0.4,0.06
2022-02-17 5:50:36.2210 p.m.,0.33,0.57,1.99,-0.12,0.39,0.09
2022-02-17 5:50:36.2320 p.m.,0.18,0.53,2.44,-0.13,0.3,0.14
2022-02-17 5:50:36.2410 p.m.,-0.01,0.54,2.88,-0.12,0.17,0.17
2022-02-17 5:50:36.2510 p.m.,-0.16,0.55,3.08,-0.11,0.09,0.22
2022-02-17 5:50:36.2610 p.m.,-0.22,0.52,2.92,-0.12,0.08,0.26
2022-02-17 5:50:36.2720 p.m.,-0.15,0.5,2.47,-0.18,0.13,0.29
2022-02-17 5:50:36.2820 p.m.,-0.13,0.33,1.99,-0.27,0.22,0.33
2022-02-17 5:50:36.2920 p.m.,-0.13,0.2,1.64,-0.38,0.29,0.39
2022-02-17 5:50:36.3010 p.m.,-0.18,0.14,1.48,-0.45,0.29,0.45
2022-02-17 5:50:36.3120 p.m.,-0.26,0.0,1.51,-0.45,0.21,0.47
2022-02-17 5:50:36.3220 p.m.,-0.38,-0.32,1.52,-0.39,0.07,0.44
2022-02-17 5:50:36.3320 p.m.,-0.52,-0.75,1.37,-0.3,-0.08,0.4
2022-02-17 5:50:36.3410 p.m.,-0.57,-1.04,1.01,-0.22,-0.17,0.35
2022-02-17 5:50:36.3520 p.m.,-0.51,-1.16,0.52,-0.12,-0.22,0.32
2022-02-17 5:50:36.3620 p.m.,-0.33,-1.19,-0.42,-0.01,-0.19,0.3
2022-02-17 5:50:36.3720 p.m.,-0.33,-1.19,-0.42,0.13,-0.14,0.29
2022-02-17 5:50:36.3820 p.m.,-0.19,-1.23,-0.76,0.32,-0.09,0.26
2022-02-17 5:50:36.3920 p.m.,-0.09,-1.31,-0.98,0.51,-0.03,0.21
2022-02-17 5:50:36.4020 p.m.,-0.02,-1.39,-1.14,0.65,0.02,0.15
2022-02-17 5:50:36.4120 p.m.,0.08,-1.43,-1.19,0.73,0.09,0.09
2022-02-17 5:50:36.4220 p.m.,0.15,-1.32,-1.21,0.76,0.16,0.06
2022-02-17 5:50:36.4320 p.m.,0.23,-1.0,-1.26,0.71,0.23,0.06
2022-02-17 5:50:36.4420 p.m.,0.25,-0.61,-1.18,0.59,0.3,0.09
2022-02-17 5:50:36.4520 p.m.,0.22,-0.23,-0.98,0.4,0.36,0.17
2022-02-17 5:50:36.4620 p.m.,0.16,0.1,-0.66,0.15,0.4,0.28
2022-02-17 5:50:36.4730 p.m.,-0.12,0.46,0.24,-0.1,0.39,0.41
2022-02-17 5:50:36.4820 p.m.,-0.12,0.46,0.24,-0.35,0.31,0.53
2022-02-17 5:50:36.4930 p.m.,-0.29,0.37,0.82,-0.56,0.19,0.62
2022-02-17 5:50:36.5030 p.m.,-0.42,0.02,1.29,-0.65,0.04,0.64
2022-02-17 5:50:36.5130 p.m.,-0.4,-0.46,1.7,-0.57,-0.18,0.59
2022-02-17 5:50:36.5230 p.m.,-0.47,-1.04,1.92,-0.33,-0.42,0.49
2022-02-17 5:50:36.5330 p.m.,-0.53,-1.46,1.78,-0.06,-0.53,0.39
2022-02-17 5:50:36.5430 p.m.,-0.21,-1.44,0.54,0.19,-0.52,0.3
2022-02-17 5:50:36.5530 p.m.,-0.21,-1.44,0.54,0.36,-0.45,0.19
2022-02-17 5:50:36.5630 p.m.,-0.07,-1.25,-0.17,0.44,-0.35,0.1
2022-02-17 5:50:36.5730 p.m.,0.03,-1.02,-0.7,0.45,-0.23,0.04
2022-02-17 5:50:36.5830 p.m.,0.11,-0.75,-1.05,0.45,-0.23,0.04
2022-02-17 5:50:36.5930 p.m.,0.15,-0.39,-1.3,0.39,-0.12,-0.03
2022-02-17 5:50:36.6030 p.m.,0.05,-0.15,-1.43,0.36,-0.12,-0.04
2022-02-17 5:50:36.6130 p.m.,-0.07,-0.01,-1.52,0.3,-0.14,-0.04
2022-02-17 5:50:36.6230 p.m.,-0.07,0.18,-1.68,0.23,-0.16,-0.03
2022-02-17 5:50:36.6330 p.m.,-0.09,0.34,-1.78,0.14,-0.14,-0.01
2022-02-17 5:50:36.6430 p.m.,-0.08,0.47,-1.92,0.02,-0.08,0.02
2022-02-17 5:50:36.6530 p.m.,-0.05,0.58,-1.95,-0.12,-0.01,0.07
2022-02-17 5:50:36.6630 p.m.,0.0,0.67,-1.83,-0.21,0.02,0.11
2022-02-17 5:50:36.6730 p.m.,0.01,0.74,-1.57,-0.3,0.04,0.13
2022-02-17 5:50:36.6840 p.m.,-0.03,0.68,-1.22,-0.36,0.04,0.13
2022-02-17 5:50:36.6930 p.m.,-0.03,0.57,-0.79,-0.36,0.01,0.1
2022-02-17 5:50:36.7030 p.m.,-0.04,0.4,-0.41,-0.33,-0.02,0.05
2022-02-17 5:50:36.7140 p.m.,-0.03,0.24,-0.14,-0.28,-0.05,-0.01
2022-02-17 5:50:36.7230 p.m.,-0.04,0.17,0.02,-0.21,-0.1,-0.07
2022-02-17 5:50:36.7340 p.m.,-0.05,0.13,0.1,-0.17,-0.12,-0.12
2022-02-17 5:50:36.7440 p.m.,-0.07,0.17,0.08,-0.15,-0.12,-0.15
2022-02-17 5:50:36.7540 p.m.,-0.03,0.29,0.05,-0.13,-0.16,-0.18
2022-02-17 5:50:36.7630 p.m.,0.01,0.4,0.09,-0.11,-0.2,-0.21
2022-02-17 5:50:36.7740 p.m.,0.01,0.43,0.09,-0.08,-0.24,-0.25
2022-02-17 5:50:36.7840 p.m.,0.1,0.43,-0.01,-0.05,-0.26,-0.29
2022-02-17 5:50:36.7930 p.m.,0.15,0.42,-0.16,-0.03,-0.26,-0.32
2022-02-17 5:50:36.8040 p.m.,0.29,0.44,-0.24,-0.01,-0.26,-0.35
2022-02-17 5:50:36.8130 p.m.,0.43,0.46,-0.3,-0.0,-0.24,-0.39
2022-02-17 5:50:36.8240 p.m.,0.53,0.37,-0.35,-0.03,-0.23,-0.44
2022-02-17 5:50:36.8340 p.m.,0.66,0.29,-0.34,-0.06,-0.21,-0.5
2022-02-17 5:50:36.8440 p.m.,0.74,0.21,-0.075694545507431,-0.08,-0.23,-0.58
2022-02-17 5:50:36.8540 p.m.,0.75,0.07,-0.08,-0.06,-0.25,-0.66
2022-02-17 5:50:36.8630 p.m.,0.75,0.0,-0.02,-0.02,-0.24,-0.72
2022-02-17 5:50:36.8740 p.m.,0.77,0.01,0.02,0.03,-0.23,-0.78
2022-02-17 5:50:36.8840 p.m.,0.73,-0.04,0.12,0.07,-0.21,-0.84
2022-02-17 5:50:36.8940 p.m.,0.69,-0.06,0.24,0.07,-0.18,-0.87
2022-02-17 5:50:36.9040 p.m.,0.66,-0.03,0.36,0.06,-0.18,-0.91
2022-02-17 5:50:36.9140 p.m.,0.58,0.04,0.94,0.04,-0.24,-0.96
2022-02-17 5:50:36.9250 p.m.,0.58,0.04,0.94,0.04,-0.35,-1.01
2022-02-17 5:50:36.9350 p.m.,0.51,0.03,1.22,0.1,-0.51,-1.08
2022-02-17 5:50:36.9440 p.m.,0.41,0.04,1.32,0.1,-0.51,-1.08
2022-02-17 5:50:36.9550 p.m.,0.57,0.07,0.88,0.26,-0.73,-1.23
2022-02-17 5:50:36.9640 p.m.,0.57,0.07,0.88,0.33,-0.76,-1.3
2022-02-17 5:50:36.9740 p.m.,0.78,0.25,0.55,0.4,-0.75,-1.36
2022-02-17 5:50:36.9850 p.m.,0.99,0.48,0.27,0.45,-0.72,-1.41
2022-02-17 5:50:36.9950 p.m.,1.22,0.7,0.05,0.42,-0.67,-1.44
2022-02-17 5:50:37.0050 p.m.,1.42,0.9,-0.1,0.31,-0.6,-1.44
2022-02-17 5:50:37.0140 p.m.,1.68,1.28,-0.2016979497671127,0.1,-0.45,-1.43
2022-02-17 5:50:37.0250 p.m.,1.82,1.5,-0.21,-0.21,-0.18,-1.39
2022-02-17 5:50:37.0350 p.m.,1.74,1.52,-0.17,-0.61,0.13,-1.32
2022-02-17 5:50:37.0450 p.m.,1.36,0.98,1.0,-0.93,0.35,-1.23
2022-02-17 5:50:37.0550 p.m.,0.83,0.26,1.82,-1.07,0.43,-1.2
2022-02-17 5:50:37.0650 p.m.,0.83,0.26,1.82,-1.01,0.35,-1.21
2022-02-17 5:50:37.0750 p.m.,0.37,-0.73,2.6,-0.74,0.09,-1.29
2022-02-17 5:50:37.0860 p.m.,-0.17,-2.11,3.1,-0.35,-0.25,-1.4
2022-02-17 5:50:37.0950 p.m.,-0.17,-2.11,3.1,-0.03,-0.5,-1.5
2022-02-17 5:50:37.1050 p.m.,-0.17,-2.21,2.65,0.09,-0.56,-1.55
2022-02-17 5:50:37.1150 p.m.,0.04,-1.95,2.02,0.07,-0.51,-1.58
2022-02-17 5:50:37.1250 p.m.,0.17,-1.69,1.36,0.05,-0.45,-1.58
2022-02-17 5:50:37.1360 p.m.,0.28,-1.46,0.9,0.11,-0.47,-1.6
2022-02-17 5:50:37.1450 p.m.,0.27,-1.4,0.59,0.22,-0.52,-1.63
2022-02-17 5:50:37.1560 p.m.,0.19,-1.53,0.35,0.33,-0.58,-1.67
2022-02-17 5:50:37.1650 p.m.,0.21,-1.56,-0.38,0.43,-0.66,-1.71
2022-02-17 5:50:37.1760 p.m.,0.35,-1.45,-0.74,0.47,-0.68,-1.73
2022-02-17 5:50:37.1860 p.m.,0.35,-1.45,-0.74,0.48,-0.63,-1.75
2022-02-17 5:50:37.1960 p.m.,0.55,-1.27,-1.15,0.51,-0.54,-1.76
2022-02-17 5:50:37.2060 p.m.,0.77,-1.04,-1.51,0.5,-0.41,-1.74
2022-02-17 5:50:37.2150 p.m.,0.9,-0.76,-1.76,0.47,-0.24,-1.7
2022-02-17 5:50:37.2260 p.m.,1.34,-0.01,-1.93,0.39,-0.01,-1.62
2022-02-17 5:50:37.2360 p.m.,1.34,-0.01,-1.93,0.28,0.19,-1.54
2022-02-17 5:50:37.2450 p.m.,1.43,0.29,-1.26,0.18,0.33,-1.46
2022-02-17 5:50:37.2560 p.m.,1.43,0.29,-1.26,0.08,0.39,-1.37
2022-02-17 5:50:37.2660 p.m.,1.33,0.26,-0.65,-0.03,0.38,-1.27
2022-02-17 5:50:37.2760 p.m.,1.05,0.01,0.59,-0.13,0.32,-1.16
2022-02-17 5:50:37.2860 p.m.,1.05,0.01,0.59,-0.22,0.22,-1.05
2022-02-17 5:50:37.2960 p.m.,0.87,-0.12,1.08,-0.3,0.09,-0.93
2022-02-17 5:50:37.3060 p.m.,0.74,-0.25,1.49,-0.36,-0.04,-0.81
2022-02-17 5:50:37.3150 p.m.,0.72,-0.39,1.82,-0.38,-0.21,-0.72
2022-02-17 5:50:37.3260 p.m.,0.71,-0.97,2.16,-0.31,-0.42,-0.67
2022-02-17 5:50:37.3360 p.m.,0.71,-0.97,2.16,-0.17,-0.6,-0.66
2022-02-17 5:50:37.3460 p.m.,0.72,-1.3,1.92,0.01,-0.71,-0.69
2022-02-17 5:50:37.3560 p.m.,0.84,-1.49,1.36,0.17,-0.7,-0.72
2022-02-17 5:50:37.3660 p.m.,1.17,-1.35,-0.15,0.27,-0.59,-0.72
2022-02-17 5:50:37.3760 p.m.,1.17,-1.35,-0.15,0.31,-0.46,-0.7
2022-02-17 5:50:37.3860 p.m.,1.29,-1.12,-0.57,0.32,-0.35,-0.67
2022-02-17 5:50:37.3950 p.m.,1.22,-0.99,-0.72,0.29,-0.3,-0.62
2022-02-17 5:50:37.4060 p.m.,1.16,-0.82,-0.76,0.24,-0.3,-0.56
2022-02-17 5:50:37.4160 p.m.,1.13,-0.69,-0.66,0.17,-0.36,-0.52
2022-02-17 5:50:37.4260 p.m.,0.95,-0.76,-0.58,0.12,-0.42,-0.48
2022-02-17 5:50:37.4360 p.m.,0.95,-0.76,-0.58,0.08,-0.42,-0.46
2022-02-17 5:50:37.4470 p.m.,0.99,-0.73,-0.7,0.08,-0.38,-0.44
2022-02-17 5:50:37.4560 p.m.,0.98,-0.69,-0.86,0.06,-0.26,-0.39
2022-02-17 5:50:37.4670 p.m.,1.09,-0.36,-0.97,0.01,-0.09,-0.32
Time,1.06,-0.27,-0.67,-0.07,0.04,-0.26
2022-02-17 5:50:37.4850 p.m.,1.06,-0.27,-0.67,-0.14,0.1,-0.2
2022-02-17 5:50:37.4960 p.m.,0.93,-0.37,-0.09,-0.17,0.06,-0.17
2022-02-17 5:50:37.5070 p.m.,0.74,-0.6,0.57,-0.15,-0.03,-0.16
2022-02-17 5:50:37.5170 p.m.,0.55,-0.88,1.01,-0.11,-0.13,-0.17
2022-02-17 5:50:37.5270 p.m.,0.48,-1.23,1.23,-0.04,-0.17,-0.2
2022-02-17 5:50:37.5370 p.m.,0.48,-1.23,1.23,0.04,-0.17,-0.22
2022-02-17 5:50:37.5470 p.m.,0.46,-1.18,0.89,0.17,-0.13,-0.23
2022-02-17 5:50:37.5570 p.m.,0.46,-1.18,0.89,0.29,-0.08,-0.22
2022-02-17 5:50:37.5670 p.m.,0.49,-1.0,0.64,0.29,-0.08,-0.22
2022-02-17 5:50:37.5770 p.m.,0.55,-0.61,0.31,0.42,0.01,-0.2
2022-02-17 5:50:37.5870 p.m.,0.55,-0.4057651913166046,0.2233227074146271,0.37,0.04,-0.18
2022-02-17 5:50:37.5970 p.m.,0.57,-0.41,0.22,0.27,0.07,-0.12
2022-02-17 5:50:37.6080 p.m.,0.5,0.15,0.29,0.13,0.09,-0.04
2022-02-17 5:50:37.6170 p.m.,0.4,0.33,0.41,-0.03,0.1,0.06
2022-02-17 5:50:37.6280 p.m.,0.23,0.42,0.61,-0.19,0.08,0.19
2022-02-17 5:50:37.6380 p.m.,0.23,0.42,0.61,-0.35,0.01,0.33
2022-02-17 5:50:37.6480 p.m.,0.07,0.39,0.85,-0.49,-0.1,0.43
2022-02-17 5:50:37.6580 p.m.,-0.09,0.14,1.12,-0.55,-0.26,0.48
2022-02-17 5:50:37.6670 p.m.,-0.2,-0.3,1.3,-0.55,-0.26,0.48
2022-02-17 5:50:37.6780 p.m.,-0.33,-0.82,1.17,-0.414002776145935,-0.53,0.42
2022-02-17 5:50:37.6870 p.m.,-0.27,-1.35,0.12,-0.28,-0.53,0.36
2022-02-17 5:50:37.6980 p.m.,-0.27,-1.35,0.12,-0.15,-0.44,0.3
2022-02-17 5:50:37.7080 p.m.,-0.13,-1.34,-0.53,-0.08,-0.29,0.26
2022-02-17 5:50:37.7180 p.m.,-0.08,-1.3,-1.01,-0.02,-0.17,0.23
2022-02-17 5:50:37.7280 p.m.,-0.04,-1.251723394989967,-1.1435797262191774,0.02,-0.11,0.18
2022-02-17 5:50:37.7380 p.m.,-0.08,-1.26,-1.15,0.04,-0.12,0.12
2022-02-17 5:50:37.7470 p.m.,-0.18,-1.35,-1.01,0.07,-0.17,0.05
2022-02-17 5:50:37.7580 p.m.,-0.23,-1.36,-0.89,0.1,-0.22,-0.01
2022-02-17 5:50:37.7670 p.m.,-0.26,-1.3,-0.9,0.12,-0.21,-0.05
2022-02-17 5:50:37.7780 p.m.,-0.21,-1.1,-1.0,0.15,-0.2,-0.1
2022-02-17 5:50:37.7860 p.m.,-0.14,-0.69,-0.92,0.16,-0.19,-0.14
2022-02-17 5:50:37.7970 p.m.,-0.14,-0.69,-0.92,0.15,-0.14,-0.18
2022-02-17 5:50:37.8090 p.m.,-0.15,-0.53,-0.83,0.09,-0.06,-0.19
2022-02-17 5:50:37.8180 p.m.,-0.08,-0.18,-0.73,-0.0,0.04,-0.17
2022-02-17 5:50:37.8280 p.m.,-0.03,0.11,-0.28,-0.14,0.15,-0.16
2022-02-17 5:50:37.8370 p.m.,-0.03,0.11,-0.28,-0.37,0.28,-0.11
2022-02-17 5:50:37.8480 p.m.,-0.06,0.24,0.15,-0.66,0.37,-0.05
2022-02-17 5:50:37.8580 p.m.,-0.08,0.34,0.89,-0.87,0.36,-0.0
2022-02-17 5:50:37.8680 p.m.,-0.33,-0.39,2.37,-0.98,0.22,-0.01
2022-02-17 5:50:37.8790 p.m.,-0.51,-1.0,2.94,-0.93,-0.07,-0.1
2022-02-17 5:50:37.8870 p.m.,-0.51,-1.0,2.94,-0.7,-0.46,-0.25
2022-02-17 5:50:37.8990 p.m.,-0.7,-1.57,3.05,-0.39,-0.76,-0.41
2022-02-17 5:50:37.9090 p.m.,-0.65,-1.86,2.51,-0.13,-0.85,-0.57
2022-02-17 5:50:37.9190 p.m.,-0.41,-1.68,1.39,0.04,-0.8,-0.71
2022-02-17 5:50:37.9290 p.m.,0.18,-0.84,-0.59,0.12,-0.65,-0.83
2022-02-17 5:50:37.9380 p.m.,0.18,-0.84,-0.59,0.11,-0.47,-0.93
2022-02-17 5:50:37.9480 p.m.,0.36,-0.42,-1.15,0.06,-0.27,-0.99
2022-02-17 5:50:37.9590 p.m.,0.52,0.03,-1.48,0.01,-0.12,-1.06
2022-02-17 5:50:37.9690 p.m.,0.6,0.2715587282180786,-1.4011372965574265,-0.02,-0.02,-1.12
2022-02-17 5:50:37.9790 p.m.,0.56,0.27,-1.41,-0.02,0.03,-1.18
2022-02-17 5:50:37.9880 p.m.,0.48,0.25,-1.1,-0.03,0.04,-1.22
2022-02-17 5:50:37.9990 p.m.,0.45,0.23,-0.81,-0.04,0.04,-1.25
2022-02-17 5:50:38.0090 p.m.,0.5,0.19,-0.47,-0.06,-0.02,-1.29
2022-02-17 5:50:38.0190 p.m.,0.54,0.1,-0.1,-0.09,-0.07,-1.32
2022-02-17 5:50:38.0300 p.m.,0.61,0.07,0.16,-0.12,-0.1,-1.35
2022-02-17 5:50:38.0380 p.m.,0.79,0.08,0.33,-0.14,-0.12,-1.36
2022-02-17 5:50:38.0490 p.m.,0.97,0.12,0.38,-0.15,-0.13,-1.37
2022-02-17 5:50:38.0600 p.m.,1.15,0.15,0.41,-0.17,-0.14,-1.38
2022-02-17 5:50:38.0690 p.m.,1.37,0.06,0.52,-0.21,-0.17,-1.39
2022-02-17 5:50:38.0800 p.m.,1.37,0.06,0.52,-0.21,-0.17,-1.39
2022-02-17 5:50:38.0880 p.m.,1.38,-0.09,0.61,-0.32,-0.27,-1.47
2022-02-17 5:50:38.0990 p.m.,1.41,-0.32,0.58,-0.34,-0.3,-1.52
2022-02-17 5:50:38.1100 p.m.,1.42,-0.48,0.5,-0.34,-0.33,-1.58
2022-02-17 5:50:38.1180 p.m.,1.38,-0.62,0.38,-0.33,-0.35,-1.64
2022-02-17 5:50:38.1300 p.m.,1.36,-0.75,0.26,-0.32,-0.36,-1.69
2022-02-17 5:50:38.1390 p.m.,1.29,-0.85,0.11,-0.32,-0.35,-1.72
2022-02-17 5:50:38.1460 p.m.,1.34,-0.84,-0.09,-0.3,-0.38,-1.74
2022-02-17 5:50:38.1570 p.m.,1.34,-0.84,-0.09,-0.21,-0.47,-1.77
2022-02-17 5:50:38.1680 p.m.,1.08,-1.1,-0.19,-0.08,-0.61,-1.82
2022-02-17 5:50:38.1790 p.m.,1.08,-1.1,-0.19,0.03,-0.73,-1.89
2022-02-17 5:50:38.1890 p.m.,0.99,-1.16,-1.06,0.11,-0.81,-1.94
2022-02-17 5:50:38.2000 p.m.,0.99,-1.16,-1.06,0.16,-0.84,-1.96
2022-02-17 5:50:38.2100 p.m.,1.03,-0.97,-1.71,0.22,-0.8,-1.95
2022-02-17 5:50:38.2200 p.m.,1.04,-0.72,-2.27,0.27,-0.7,-1.88
2022-02-17 5:50:38.2310 p.m.,1.08,-0.38,-2.65,0.29,-0.56,-1.77
2022-02-17 5:50:38.2390 p.m.,1.32,0.03,-2.75,0.24,-0.48,-1.71
2022-02-17 5:50:38.2500 p.m.,1.64,0.31,-2.4,0.12,-0.52,-1.72
2022-02-17 5:50:38.2600 p.m.,1.76,0.22,-1.65,-0.07,-0.62,-1.78
2022-02-17 5:50:38.2700 p.m.,2.07,0.11,-0.21,-0.28,-0.73,-1.88
2022-02-17 5:50:38.2810 p.m.,2.07,0.11,-0.21,-0.45,-0.77,-2.0
2022-02-17 5:50:38.2900 p.m.,2.33,0.22,0.49,-0.55,-0.72,-2.1
2022-02-17 5:50:38.3010 p.m.,2.33,0.22,0.49,-0.62,-0.57,-2.17
2022-02-17 5:50:38.3110 p.m.,2.43,0.64,1.02,-0.64,-0.35,-2.18
2022-02-17 5:50:38.3200 p.m.,2.43,0.64,1.02,-0.64,-0.08,-2.13
2022-02-17 5:50:38.3310 p.m.,2.43,0.9,1.35,-0.57,0.13,-2.06
2022-02-17 5:50:38.3390 p.m.,2.35,0.96,1.85,-0.47,0.21,-2.01
2022-02-17 5:50:38.3500 p.m.,1.9,0.32,3.24,-0.36,0.13,-2.0
2022-02-17 5:50:38.3610 p.m.,1.9,0.32,3.24,-0.23,-0.11,-2.01
2022-02-17 5:50:38.3710 p.m.,1.36,-0.36,3.79,-0.12,-0.38,-2.03
2022-02-17 5:50:38.3810 p.m.,1.36,-0.36,3.79,-0.07,-0.59,-2.03
2022-02-17 5:50:38.3900 p.m.,1.25,-0.26,2.66,-0.06,-0.71,-1.99
2022-02-17 5:50:38.4010 p.m.,1.25,-0.26,2.66,-0.02,-0.76,-1.93
2022-02-17 5:50:38.4110 p.m.,1.22,-0.16,1.98,0.08,-0.78,-1.88
2022-02-17 5:50:38.4210 p.m.,1.13,-0.23,1.33,0.21,-0.8,-1.85
2022-02-17 5:50:38.4320 p.m.,1.09,-0.41,0.75,0.33,-0.78,-1.84
2022-02-17 5:50:38.4400 p.m.,1.11,-0.61,-0.32,0.4,-0.75,-1.85
2022-02-17 5:50:38.4510 p.m.,1.11,-0.61,-0.32,0.43,-0.72,-1.87
2022-02-17 5:50:38.4610 p.m.,1.14,-0.63,-0.81,0.42,-0.69,-1.87
2022-02-17 5:50:38.4710 p.m.,1.11,-0.37,-1.32,0.35,-0.66,-1.85
2022-02-17 5:50:38.4820 p.m.,1.07,-0.2,-1.46,0.26,-0.62,-1.82
2022-02-17 5:50:38.4910 p.m.,1.07,-0.2,-1.46,0.18,-0.58,-1.78
2022-02-17 5:50:38.5010 p.m.,0.98,0.0,-1.54,0.11,-0.52,-1.71
2022-02-17 5:50:38.5120 p.m.,0.95,0.16,-1.47,0.07,-0.49,-1.65
2022-02-17 5:50:38.5210 p.m.,0.89,0.25,-1.3,0.04,-0.48,-1.58
2022-02-17 5:50:38.5320 p.m.,0.74,0.21,-1.07,0.0,-0.49,-1.52
2022-02-17 5:50:38.5410 p.m.,0.65,0.26,-0.83,-0.04,-0.49,-1.45
2022-02-17 5:50:38.5520 p.m.,0.48,0.31,-0.34,-0.09,-0.5,-1.39
2022-02-17 5:50:38.5610 p.m.,0.48,0.31,-0.34,-0.12,-0.52,-1.32
2022-02-17 5:50:38.5700 p.m.,0.37,0.37,-0.11,-0.14,-0.56,-1.25
2022-02-17 5:50:38.5810 p.m.,0.27,0.39,0.13,-0.14,-0.64,-1.2
2022-02-17 5:50:38.5910 p.m.,0.17,0.33,0.35,-0.14,-0.64,-1.2
2022-02-17 5:50:38.6020 p.m.,0.03,0.07,0.33,-0.17,-0.73,-1.17
2022-02-17 5:50:38.6120 p.m.,0.03,0.07,0.33,-0.15,-0.73,-1.17
2022-02-17 5:50:38.6220 p.m.,-0.02,-0.03,0.14,-0.11,-0.7,-1.18
2022-02-17 5:50:38.6320 p.m.,-0.05,-0.02,-0.02,-0.04,-0.66,-1.17
2022-02-17 5:50:38.6420 p.m.,-0.21,-0.05,-0.22,0.04,-0.62,-1.18
2022-02-17 5:50:38.6520 p.m.,-0.21,-0.05,-0.22,0.04,-0.62,-1.18
2022-02-17 5:50:38.6620 p.m.,-0.31,-0.09,-0.28,0.14,-0.59,-1.18
2022-02-17 5:50:38.6720 p.m.,-0.33,-0.02,-0.32,0.13,-0.56,-1.17
2022-02-17 5:50:38.6820 p.m.,-0.25,0.16,-0.35,0.11,-0.52,-1.17
2022-02-17 5:50:38.6920 p.m.,-0.19,0.3,-0.41,0.11,-0.52,-1.17
2022-02-17 5:50:38.7020 p.m.,-0.16,0.6,-0.35,0.04,-0.35,-1.14
2022-02-17 5:50:38.7120 p.m.,-0.16,0.6,-0.35,0.01,-0.23,-1.11
2022-02-17 5:50:38.7220 p.m.,-0.27,0.65,-0.21,-0.03,-0.1,-1.07
2022-02-17 5:50:38.7320 p.m.,-0.37,0.74,0.01,-0.06,0.0,-1.01
2022-02-17 5:50:38.7420 p.m.,-0.45,0.87,0.31,-0.07,0.06,-0.95
2022-02-17 5:50:38.7520 p.m.,-0.68,0.74,0.9,-0.07,0.08,-0.89
2022-02-17 5:50:38.7620 p.m.,-0.68,0.74,0.9,-0.09,0.03,-0.83
2022-02-17 5:50:38.7720 p.m.,-0.81,0.62,1.13,-0.16,-0.03,-0.76
2022-02-17 5:50:38.7830 p.m.,-0.84,0.66,1.27,-0.29,-0.08,-0.67
2022-02-17 5:50:38.7920 p.m.,-0.8,0.81,1.28,-0.46,-0.11,-0.57
2022-02-17 5:50:38.8030 p.m.,-0.73,0.9,1.22,-0.65,-0.12,-0.48
2022-02-17 5:50:38.8120 p.m.,-0.65,0.8,1.04,-0.78,-0.16,-0.4
2022-02-17 5:50:38.8230 p.m.,-0.81,0.45,0.99,-0.81,-0.19,-0.35
2022-02-17 5:50:38.8340 p.m.,-0.81,0.45,0.99,-0.72,-0.22,-0.34
2022-02-17 5:50:38.8420 p.m.,-0.87,0.13,0.82,-0.56,-0.22,-0.37
2022-02-17 5:50:38.8530 p.m.,-0.91,-0.21,0.6,-0.38,-0.18,-0.42
2022-02-17 5:50:38.8600 p.m.,-0.96,-0.51,0.27,-0.2,-0.07,-0.48
2022-02-17 5:50:38.8730 p.m.,-0.92,-0.59,-0.18,-0.08,0.08,-0.5
2022-02-17 5:50:38.8810 p.m.,-0.89,-0.49,-0.51,-0.02,0.21,-0.46
2022-02-17 5:50:38.8920 p.m.,-0.91,-0.25,-0.53,-0.01,0.25,-0.41
2022-02-17 5:50:38.9010 p.m.,-1.02,-0.09,-0.3,-0.03,0.2,-0.36
2022-02-17 5:50:38.9110 p.m.,-1.14,-0.06,0.1,-0.03,0.08,-0.31
2022-02-17 5:50:38.9220 p.m.,-1.2,-0.11,0.48,-0.0,-0.07,-0.29
2022-02-17 5:50:38.9310 p.m.,-1.26,-0.26,0.69,0.09,-0.2,-0.29
2022-02-17 5:50:38.9430 p.m.,-1.22,-0.39,0.461631828546524,0.21,-0.25,-0.29
2022-02-17 5:50:38.9540 p.m.,-1.0,-0.3,0.04,0.29,-0.22,-0.28
2022-02-17 5:50:38.9620 p.m.,-1.0,-0.3,0.04,0.31,-0.13,-0.27
2022-02-17 5:50:38.9730 p.m.,-0.89,0.0110483139753341,-0.42,0.3,0.01,-0.2
2022-02-17 5:50:38.9840 p.m.,-0.84,0.01,-0.42,0.26,0.15,-0.09
2022-02-17 5:50:38.9930 p.m.,-0.79,0.54,-0.39,0.16,0.24,0.05
2022-02-17 5:50:39.0040 p.m.,-0.87,0.5,0.06,-0.01,0.25,0.16
2022-02-17 5:50:39.0130 p.m.,-0.87,0.5,0.06,-0.21,0.16,0.25
2022-02-17 5:50:39.0240 p.m.,-0.96,0.32,0.57,-0.39,-0.0,0.32
2022-02-17 5:50:39.0340 p.m.,-1.08,0.03,0.99,-0.49,-0.17,0.37
2022-02-17 5:50:39.0440 p.m.,-1.15,-0.24,1.13,-0.49,-0.31,0.39
2022-02-17 5:50:39.0540 p.m.,-1.11,-0.74,0.56,-0.41,-0.37,0.39
2022-02-17 5:50:39.0630 p.m.,-1.11,-0.74,0.56,-0.29,-0.39,0.37
2022-02-17 5:50:39.0740 p.m.,-0.94,-0.94,-0.16,-0.17,-0.38,0.33
2022-02-17 5:50:39.0840 p.m.,-0.94,-0.94,-0.16,-0.06,-0.33,0.29
2022-02-17 5:50:39.0930 p.m.,-0.9,-0.94,-0.55,0.02,-0.23,0.25
2022-02-17 5:50:39.1040 p.m.,-0.74,-0.54,-1.24,0.05,-0.12,0.23
2022-02-17 5:50:39.1130 p.m.,-0.73,-0.36,-1.37,0.08,-0.03,0.21
2022-02-17 5:50:39.1230 p.m.,-0.73,-0.36,-1.37,0.08,0.02,0.2
2022-02-17 5:50:39.1330 p.m.,-0.74,-0.16,-1.36,0.06,0.04,0.21
2022-02-17 5:50:39.1440 p.m.,-0.78,0.05,-1.25,0.02,0.02,0.22
2022-02-17 5:50:39.1530 p.m.,-0.81,0.31,-1.03,0.0,-0.03,0.23
2022-02-17 5:50:39.1620 p.m.,-0.78,0.41,-1.05,-0.01,-0.07,0.24
2022-02-17 5:50:39.1730 p.m.,-0.78,0.41,-1.05,-0.03,-0.07,0.25
2022-02-17 5:50:39.1840 p.m.,-0.72,0.54,-1.15,-0.06,-0.04,0.27
2022-02-17 5:50:39.1940 p.m.,-0.62,0.66,-1.28,-0.09,0.02,0.3
2022-02-17 5:50:39.2040 p.m.,-0.45,0.96,-1.3,-0.12,0.09,0.35
2022-02-17 5:50:39.2130 p.m.,-0.45,0.96,-1.3,-0.14,0.12,0.4
2022-02-17 5:50:39.2240 p.m.,-0.38,1.12,-1.13,-0.16,0.08,0.44
2022-02-17 5:50:39.2350 p.m.,-0.35,1.13,-0.89,-0.18,-0.01,0.45
2022-02-17 5:50:39.2440 p.m.,-0.29,1.1,-0.68,-0.21,-0.12,0.45
2022-02-17 5:50:39.2550 p.m.,-0.25,1.05,-0.62,-0.24,-0.2,0.43
2022-02-17 5:50:39.2720 p.m.,-0.01,1.09,-1.08,-0.25,-0.21,0.41
2022-02-17 5:50:39.2780 p.m.,-0.04,1.12,-1.08,-0.24,-0.18,0.39
2022-02-17 5:50:39.2880 p.m.,0.04,1.2,-1.38,-0.22,-0.1,0.38
2022-02-17 5:50:39.2980 p.m.,0.06,1.27,-1.55,-0.18,-0.01,0.39
2022-02-17 5:50:39.3080 p.m.,0.12,1.37,-1.52,-0.13,0.01,0.38
2022-02-17 5:50:39.3180 p.m.,0.12,1.38,-1.3,-0.07,-0.05,0.36
2022-02-17 5:50:39.3280 p.m.,0.01,1.28,-0.94,-0.0,-0.17,0.34
2022-02-17 5:50:39.3380 p.m.,-0.01,1.29,-0.59,0.05,-0.29,0.31
2022-02-17 5:50:39.3480 p.m.,0.01,1.33,-0.47,0.03,-0.34,0.27
2022-02-17 5:50:39.3580 p.m.,0.16,1.36,-0.47,-0.02,-0.34,0.23
Time,0.37,1.47,-0.52,-0.08,-0.32,0.18
2022-02-17 5:50:39.3780 p.m.,0.55,1.61,-0.48,-0.12,-0.27,0.13
2022-02-17 5:50:39.3880 p.m.,0.63,1.59,-0.28,-0.1,-0.2,0.08
2022-02-17 5:50:39.3980 p.m.,0.94,1.65,-0.18,-0.05,-0.12,0.02
2022-02-17 5:50:39.4080 p.m.,0.87,1.46,0.15,0.04,-0.02,-0.05
2022-02-17 5:50:39.4180 p.m.,0.88,1.23,0.48,0.14,0.07,-0.12
2022-02-17 5:50:39.4280 p.m.,0.92,1.09,0.84,0.23,0.12,-0.18
2022-02-17 5:50:39.4380 p.m.,0.85,0.94,1.3,0.28,0.13,-0.23
2022-02-17 5:50:39.4480 p.m.,0.79,0.96,1.85,0.31,0.06,-0.26
2022-02-17 5:50:39.4580 p.m.,0.72,1.1,2.38,0.36,-0.1,-0.29
2022-02-17 5:50:39.4690 p.m.,0.65,1.3,2.83,0.41,-0.28,-0.3
2022-02-17 5:50:39.4780 p.m.,0.68,1.46,2.97,0.44,-0.4,-0.29
2022-02-17 5:50:39.4890 p.m.,0.79,1.55,2.81,0.4,-0.45,-0.28
2022-02-17 5:50:39.4980 p.m.,0.99,1.62,2.47,0.29,-0.4,-0.25
2022-02-17 5:50:39.5090 p.m.,1.24,1.81,2.22,0.16,-0.33,-0.23
2022-02-17 5:50:39.5190 p.m.,1.44,1.99,2.09,0.03,-0.27,-0.2
2022-02-17 5:50:39.5290 p.m.,1.46,1.96,2.14,-0.06,-0.23,-0.17
2022-02-17 5:50:39.5390 p.m.,1.37,1.71,2.29,-0.09,-0.23,-0.16
2022-02-17 5:50:39.5490 p.m.,1.18,1.25,2.34,-0.07,-0.24,-0.18
2022-02-17 5:50:39.5590 p.m.,0.92,0.66,2.26,-0.02,-0.27,-0.21
2022-02-17 5:50:39.5690 p.m.,0.72,0.19,2.1,0.02,-0.32,-0.24
2022-02-17 5:50:39.5790 p.m.,0.53,-0.15,1.96,0.04,-0.39,-0.29
2022-02-17 5:50:39.5890 p.m.,0.33,-0.4,1.79,0.04,-0.45,-0.31
2022-02-17 5:50:39.5990 p.m.,0.17,-0.45,1.47,-0.0,-0.52,-0.32
2022-02-17 5:50:39.6090 p.m.,0.1,-0.48,1.21,-0.04,-0.57,-0.34
2022-02-17 5:50:39.6190 p.m.,0.01,-0.61,0.91,-0.02,-0.63,-0.35
2022-02-17 5:50:39.6290 p.m.,0.01,-0.75,0.51,0.04,-0.7,-0.38
2022-02-17 5:50:39.6390 p.m.,0.06,-1.03,0.11,0.11,-0.74,-0.43
2022-02-17 5:50:39.6490 p.m.,0.21,-1.34,-0.29,0.17,-0.72,-0.51
2022-02-17 5:50:39.6590 p.m.,0.45,-1.5,-0.74,0.21,-0.62,-0.6
2022-02-17 5:50:39.6690 p.m.,0.68,-1.54,-1.13,0.23,-0.46,-0.69
2022-02-17 5:50:39.6790 p.m.,0.9,-1.44,-1.43,0.22,-0.25,-0.75
2022-02-17 5:50:39.6890 p.m.,0.98,-1.32,-1.47,0.24,-0.04,-0.77
2022-02-17 5:50:39.6990 p.m.,1.05,-1.12,-1.36,0.29,0.12,-0.76
2022-02-17 5:50:39.7090 p.m.,1.04,-0.93,-1.08,0.34,0.21,-0.74
2022-02-17 5:50:39.7190 p.m.,0.91,-0.89,-0.58,0.36,0.22,-0.72
2022-02-17 5:50:39.7290 p.m.,0.77,-0.91,0.01,0.36,0.15,-0.7
2022-02-17 5:50:39.7400 p.m.,0.68,-0.94,0.43,0.32,0.06,-0.7
2022-02-17 5:50:39.7500 p.m.,0.57,-1.02,0.66,0.28,-0.04,-0.71
2022-02-17 5:50:39.7600 p.m.,0.5,-1.1,0.73,0.24,-0.11,-0.72
2022-02-17 5:50:39.7700 p.m.,0.46,-1.08,0.61,0.23,-0.16,-0.72
2022-02-17 5:50:39.7800 p.m.,0.4,-1.09,0.39,0.23,-0.17,-0.72
2022-02-17 5:50:39.7900 p.m.,0.38,-1.04,0.08,0.26,-0.17,-0.72
2022-02-17 5:50:39.8000 p.m.,0.35,-1.02,-0.21,0.28,-0.19,-0.73
2022-02-17 5:50:39.8100 p.m.,0.3,-1.05,-0.47,0.3,-0.2,-0.75
2022-02-17 5:50:39.8200 p.m.,0.28,-1.0,-0.78,0.3,-0.2,-0.76
2022-02-17 5:50:39.8300 p.m.,0.28,-0.96,-1.1,0.27,-0.23,-0.78
2022-02-17 5:50:39.8400 p.m.,0.28,-0.9,-1.36,0.23,-0.26,-0.79
2022-02-17 5:50:39.8500 p.m.,0.26,-0.78,-1.57,0.15,-0.23,-0.78
2022-02-17 5:50:39.8600 p.m.,0.27,-0.64,-1.78,0.07,-0.2,-0.75
2022-02-17 5:50:39.8700 p.m.,0.34,-0.44,-1.96,-0.0,-0.13,-0.72
2022-02-17 5:50:39.8800 p.m.,0.36,-0.35,-2.03,-0.03,-0.08,-0.72
2022-02-17 5:50:39.8900 p.m.,0.38,-0.36,-2.02,-0.02,-0.08,-0.74
2022-02-17 5:50:39.9000 p.m.,0.26,-0.56,-1.91,-0.01,-0.06,-0.76
2022-02-17 5:50:39.9100 p.m.,0.23,-0.63,-1.83,-0.01,-0.09,-0.78
2022-02-17 5:50:39.9200 p.m.,0.22,-0.57,-1.66,-0.01,-0.1,-0.79
2022-02-17 5:50:39.9300 p.m.,0.14,-0.54,-1.45,-0.01,-0.07,-0.78
2022-02-17 5:50:39.9400 p.m.,0.12,-0.36,-1.45,0.01,-0.03,-0.77
2022-02-17 5:50:39.9510 p.m.,0.11,-0.22,-1.38,0.04,-0.01,-0.75
2022-02-17 5:50:39.9610 p.m.,0.06,-0.15,-1.22,0.07,0.02,-0.74
2022-02-17 5:50:39.9710 p.m.,0.08,-0.08,-1.18,0.08,0.02,-0.72
2022-02-17 5:50:39.9800 p.m.,0.09,-0.01,-1.11,0.07,0.03,-0.7
2022-02-17 5:50:39.9910 p.m.,-0.01,0.04,-1.03,0.03,0.05,-0.66
2022-02-17 5:50:40.0010 p.m.,-0.03,0.2,-0.94,0.01,0.08,-0.62
2022-02-17 5:50:40.0110 p.m.,-0.01,0.31,-0.84,0.05,0.13,-0.58
2022-02-17 5:50:40.0210 p.m.,-0.09,0.31,-0.71,0.1,0.18,-0.54
2022-02-17 5:50:40.0310 p.m.,-0.09,0.31,-0.57,0.15,0.23,-0.52
2022-02-17 5:50:40.0410 p.m.,-0.09,0.3,-0.36,0.17,0.28,-0.49
2022-02-17 5:50:40.0510 p.m.,-0.09,0.36,-0.08,0.16,0.32,-0.45
2022-02-17 5:50:40.0610 p.m.,-0.09,0.51,0.19,0.13,0.35,-0.39
2022-02-17 5:50:40.0710 p.m.,-0.07,0.59,0.53,0.12,0.34,-0.32
2022-02-17 5:50:40.0810 p.m.,-0.06,0.6,0.95,0.16,0.28,-0.24
2022-02-17 5:50:40.0910 p.m.,-0.16,0.53,1.32,0.22,0.2,-0.15
2022-02-17 5:50:40.1010 p.m.,-0.2,0.45,1.55,0.27,0.13,-0.08
2022-02-17 5:50:40.1110 p.m.,-0.19,0.37,1.58,0.27,0.11,-0.02
2022-02-17 5:50:40.1210 p.m.,-0.03,0.34,1.46,0.22,0.11,0.01
2022-02-17 5:50:40.1310 p.m.,0.15,0.37,1.42,0.16,0.11,0.04
2022-02-17 5:50:40.1420 p.m.,0.23,0.41,1.4,0.12,0.1,0.05
2022-02-17 5:50:40.1510 p.m.,0.23,0.43,1.37,0.06,0.11,0.07
2022-02-17 5:50:40.1620 p.m.,0.18,0.45,1.31,-0.02,0.17,0.12
2022-02-17 5:50:40.1720 p.m.,0.22,0.65,1.21,-0.13,0.25,0.2
2022-02-17 5:50:40.1810 p.m.,0.26,0.87,1.13,-0.28,0.34,0.29
2022-02-17 5:50:40.1920 p.m.,0.15,0.91,1.1,-0.47,0.47,0.4
2022-02-17 5:50:40.2010 p.m.,-0.01,0.87,1.07,-0.69,0.59,0.49
2022-02-17 5:50:40.2120 p.m.,-0.11,0.63,1.08,-0.86,0.62,0.54
2022-02-17 5:50:40.2220 p.m.,-0.34,0.2,1.31,-0.96,0.52,0.58
2022-02-17 5:50:40.2320 p.m.,-0.63,-0.26,1.69,-0.96,0.33,0.61
2022-02-17 5:50:40.2420 p.m.,-0.82,-0.66,1.9,-0.85,0.02,0.58
2022-02-17 5:50:40.2520 p.m.,-0.92,-1.08,1.79,-0.7,-0.28,0.53
2022-02-17 5:50:40.2620 p.m.,-1.04,-1.49,1.53,-0.58,-0.46,0.47
2022-02-17 5:50:40.2720 p.m.,-0.78,-1.54,0.87,-0.47,-0.54,0.4
2022-02-17 5:50:40.2820 p.m.,-0.54,-1.5,0.05,-0.35,-0.55,0.32
2022-02-17 5:50:40.2920 p.m.,-0.31,-1.37,-0.61,-0.25,-0.45,0.26
2022-02-17 5:50:40.3020 p.m.,-0.11,-1.14,-1.2,-0.14,-0.27,0.22
2022-02-17 5:50:40.3120 p.m.,0.12,-0.87,-1.67,0.01,-0.08,0.17
2022-02-17 5:50:40.3220 p.m.,0.28,-0.67,-1.85,0.16,0.09,0.11
2022-02-17 5:50:40.3320 p.m.,0.28,-0.61,-1.77,0.28,0.24,0.06
2022-02-17 5:50:40.3420 p.m.,0.23,-0.45,-1.57,0.35,0.37,0.04
2022-02-17 5:50:40.3520 p.m.,0.28,-0.14,-1.3,0.35,0.45,0.05
2022-02-17 5:50:40.3620 p.m.,0.16,0.14,-1.0,0.25,0.52,0.11
2022-02-17 5:50:40.3720 p.m.,0.09,0.48,-0.64,0.08,0.57,0.23
2022-02-17 5:50:40.3820 p.m.,0.09,0.88,-0.31,-0.12,0.55,0.38
2022-02-17 5:50:40.3920 p.m.,0.03,1.09,0.18,-0.33,0.43,0.51
2022-02-17 5:50:40.4030 p.m.,-0.13,1.05,0.82,-0.48,0.23,0.6
2022-02-17 5:50:40.4120 p.m.,-0.29,0.78,1.37,-0.58,-0.02,0.63
2022-02-17 5:50:40.4230 p.m.,-0.34,0.39,1.67,-0.56,-0.24,0.62
2022-02-17 5:50:40.4330 p.m.,-0.33,0.0,1.74,-0.44,-0.42,0.55
2022-02-17 5:50:40.4430 p.m.,-0.35,-0.38,1.46,-0.25,-0.48,0.46
2022-02-17 5:50:40.4520 p.m.,-0.26,-0.6,0.89,-0.06,-0.43,0.36
2022-02-17 5:50:40.4630 p.m.,-0.15,-0.54,0.23,0.09,-0.31,0.27
2022-02-17 5:50:40.4730 p.m.,-0.08,-0.36,-0.37,0.19,-0.19,0.19
2022-02-17 5:50:40.4830 p.m.,-0.07,-0.12,-0.79,0.23,-0.09,0.13
2022-02-17 5:50:40.4930 p.m.,-0.11,0.1,-0.99,0.24,-0.06,0.08
2022-02-17 5:50:40.5030 p.m.,-0.24,0.3,-1.04,0.24,-0.08,0.04
2022-02-17 5:50:40.5130 p.m.,-0.4,0.47,-1.15,0.21,-0.12,0.03
2022-02-17 5:50:40.5230 p.m.,-0.5,0.64,-1.28,0.17,-0.16,0.03
2022-02-17 5:50:40.5330 p.m.,-0.55,0.81,-1.43,0.11,-0.18,0.06
2022-02-17 5:50:40.5430 p.m.,-0.55,0.99,-1.62,0.04,-0.16,0.12
2022-02-17 5:50:40.5530 p.m.,-0.46,1.17,-1.81,-0.02,-0.13,0.17
2022-02-17 5:50:40.5630 p.m.,-0.3,1.33,-1.9,-0.06,-0.12,0.2
2022-02-17 5:50:40.5730 p.m.,-0.21,1.25,-1.85,-0.12,-0.14,0.19
2022-02-17 5:50:40.5830 p.m.,-0.15,1.02,-1.71,-0.16,-0.17,0.15
2022-02-17 5:50:40.5930 p.m.,-0.04,0.86,-1.53,-0.16,-0.2,0.09
2022-02-17 5:50:40.6030 p.m.,0.06,0.72,-1.45,-0.14,-0.22,0.02
2022-02-17 5:50:40.6130 p.m.,0.18,0.63,-1.44,-0.12,-0.21,-0.05
2022-02-17 5:50:40.6230 p.m.,0.32,0.65,-1.49,-0.1,-0.17,-0.09
2022-02-17 5:50:40.6330 p.m.,0.49,0.72,-1.55,-0.08,-0.13,-0.14
2022-02-17 5:50:40.6430 p.m.,0.61,0.72,-1.48,-0.09,-0.09,-0.19
2022-02-17 5:50:40.6540 p.m.,0.66,0.69,-1.23,-0.12,-0.11,-0.24
2022-02-17 5:50:40.6630 p.m.,0.73,0.76,-0.78,-0.1,-0.18,-0.29
2022-02-17 5:50:40.6740 p.m.,0.74,0.78,-0.33,-0.04,-0.25,-0.35
2022-02-17 5:50:40.6840 p.m.,0.81,0.75,-0.07,0.03,-0.34,-0.43
2022-02-17 5:50:40.6940 p.m.,0.92,0.67,0.2,0.09,-0.41,-0.51
2022-02-17 5:50:40.7040 p.m.,1.0,0.59,0.44,0.13,-0.41,-0.59
2022-02-17 5:50:40.7140 p.m.,1.18,0.61,0.53,0.17,-0.38,-0.68
2022-02-17 5:50:40.7240 p.m.,1.37,0.63,0.61,0.19,-0.3,-0.74
2022-02-17 5:50:40.7340 p.m.,1.49,0.69,0.72,0.18,-0.19,-0.76
2022-02-17 5:50:40.7440 p.m.,1.61,0.8,0.94,0.17,-0.08,-0.76
2022-02-17 5:50:40.7540 p.m.,1.67,0.82,1.23,0.14,-0.01,-0.77
2022-02-17 5:50:40.7640 p.m.,1.61,0.65,1.71,0.11,-0.02,-0.8
2022-02-17 5:50:40.7740 p.m.,1.55,0.51,2.23,0.08,-0.12,-0.84
2022-02-17 5:50:40.7840 p.m.,1.43,0.39,2.75,0.04,-0.22,-0.88
2022-02-17 5:50:40.7940 p.m.,1.4,0.33,3.13,0.05,-0.37,-0.91
2022-02-17 5:50:40.8040 p.m.,1.39,0.38,3.25,0.06,-0.5,-0.93
2022-02-17 5:50:40.8140 p.m.,1.35,0.35,3.14,0.03,-0.58,-0.96
2022-02-17 5:50:40.8240 p.m.,1.43,0.33,2.76,-0.01,-0.59,-1.0
2022-02-17 5:50:40.8340 p.m.,1.51,0.26,2.18,-0.09,-0.51,-1.03
2022-02-17 5:50:40.8440 p.m.,1.49,0.11,1.55,-0.18,-0.37,-1.05
2022-02-17 5:50:40.8540 p.m.,1.42,-0.04,1.08,-0.25,-0.24,-1.05
2022-02-17 5:50:40.8640 p.m.,1.31,-0.18,0.86,-0.31,-0.19,-1.03
2022-02-17 5:50:40.8740 p.m.,1.1,-0.39,0.95,-0.33,-0.22,-1.03
2022-02-17 5:50:40.8850 p.m.,0.89,-0.74,1.22,-0.31,-0.34,-1.07
2022-02-17 5:50:40.8950 p.m.,0.68,-1.21,1.55,-0.25,-0.5,-1.12
2022-02-17 5:50:40.9050 p.m.,0.47,-1.64,1.7,-0.15,-0.65,-1.19
2022-02-17 5:50:40.9150 p.m.,0.49,-1.86,1.56,-0.05,-0.75,-1.29
2022-02-17 5:50:40.9250 p.m.,0.51,-2.04,1.16,0.05,-0.78,-1.39
2022-02-17 5:50:40.9350 p.m.,0.64,-2.11,0.56,0.13,-0.72,-1.48
2022-02-17 5:50:40.9450 p.m.,0.84,-1.92,-0.14,0.18,-0.62,-1.54
2022-02-17 5:50:40.9550 p.m.,0.97,-1.7,-0.65,0.19,-0.47,-1.59
2022-02-17 5:50:40.9650 p.m.,1.09,-1.52,-1.05,0.16,-0.3,-1.62
2022-02-17 5:50:40.9750 p.m.,1.21,-1.31,-1.25,0.12,-0.15,-1.65
2022-02-17 5:50:40.9850 p.m.,1.3,-1.18,-1.25,0.09,-0.02,-1.66
2022-02-17 5:50:40.9950 p.m.,1.29,-1.13,-1.09,0.09,0.05,-1.67
2022-02-17 5:50:41.0050 p.m.,1.21,-1.12,-0.77,0.11,0.08,-1.67
2022-02-17 5:50:41.0150 p.m.,1.12,-1.14,-0.44,0.12,0.1,-1.65
2022-02-17 5:50:41.0250 p.m.,1.06,-1.17,-0.15,0.1,0.11,-1.64
2022-02-17 5:50:41.0350 p.m.,0.99,-1.17,0.08,0.07,0.1,-1.61
2022-02-17 5:50:41.0450 p.m.,0.91,-1.19,0.28,0.03,0.07,-1.57
2022-02-17 5:50:41.0550 p.m.,0.84,-1.17,0.47,-0.0,0.01,-1.52
2022-02-17 5:50:41.0650 p.m.,0.74,-1.18,0.56,-0.02,-0.06,-1.48
2022-02-17 5:50:41.0750 p.m.,0.69,-1.19,0.56,-0.03,-0.15,-1.45
2022-02-17 5:50:41.0850 p.m.,0.58,-1.24,0.5,-0.01,-0.23,-1.43
2022-02-17 5:50:41.0950 p.m.,0.51,-1.26,0.3,0.02,-0.31,-1.41
2022-02-17 5:50:41.1060 p.m.,0.44,-1.29,0.02,0.05,-0.37,-1.39
2022-02-17 5:50:41.1150 p.m.,0.43,-1.24,-0.35,0.07,-0.41,-1.35
2022-02-17 5:50:41.1260 p.m.,0.43,-1.12,-0.75,0.07,-0.42,-1.31
2022-02-17 5:50:41.1360 p.m.,0.46,-0.95,-1.17,0.03,-0.43,-1.26
2022-02-17 5:50:41.1460 p.m.,0.48,-0.75,-1.49,-0.03,-0.45,-1.19
2022-02-17 5:50:41.1560 p.m.,0.46,-0.56,-1.68,-0.11,-0.45,-1.11
2022-02-17 5:50:41.1660 p.m.,0.54,-0.34,-1.86,-0.2,-0.48,-1.05
2022-02-17 5:50:41.1760 p.m.,0.49,-0.21,-2.01,-0.26,-0.5,-1.0
2022-02-17 5:50:41.1860 p.m.,0.39,-0.18,-2.05,-0.3,-0.51,-0.94
2022-02-17 5:50:41.1960 p.m.,0.35,-0.01,-2.09,-0.3,-0.51,-0.88
2022-02-17 5:50:41.2060 p.m.,0.34,0.08,-2.1,-0.27,-0.48,-0.84
2022-02-17 5:50:41.2160 p.m.,0.3,0.06,-2.11,-0.23,-0.44,-0.82
2022-02-17 5:50:41.2260 p.m.,0.34,0.02,-2.07,-0.19,-0.39,-0.81
2022-02-17 5:50:41.2360 p.m.,0.33,-0.01,-2.0,-0.17,-0.31,-0.79
2022-02-17 5:50:41.2460 p.m.,0.37,0.08,-1.94,-0.18,-0.23,-0.76
2022-02-17 5:50:41.2560 p.m.,0.36,0.22,-1.83,-0.2,-0.16,-0.74
2022-02-17 5:50:41.2660 p.m.,0.33,0.3,-1.58,-0.22,-0.1,-0.7
2022-02-17 5:50:41.2760 p.m.,0.31,0.4,-1.26,-0.21,-0.09,-0.67
2022-02-17 5:50:41.2860 p.m.,0.29,0.43,-0.83,-0.19,-0.1,-0.65
2022-02-17 5:50:41.2960 p.m.,0.21,0.38,-0.45,-0.16,-0.11,-0.64
2022-02-17 5:50:41.3060 p.m.,0.25,0.4,-0.16,-0.12,-0.08,-0.63
2022-02-17 5:50:41.3160 p.m.,0.3,0.43,-0.01,-0.1,0.02,-0.62
2022-02-17 5:50:41.3260 p.m.,0.36,0.48,0.1,-0.09,0.11,-0.58
2022-02-17 5:50:41.3360 p.m.,0.37,0.56,0.31,-0.06,0.17,-0.53
2022-02-17 5:50:41.3460 p.m.,0.26,0.63,0.67,-0.03,0.16,-0.47
2022-02-17 5:50:41.3570 p.m.,0.13,0.67,1.08,-0.02,0.11,-0.41
2022-02-17 5:50:41.3660 p.m.,0.05,0.61,1.43,-0.04,0.03,-0.36
2022-02-17 5:50:41.3770 p.m.,0.04,0.56,1.66,-0.08,-0.07,-0.33
2022-02-17 5:50:41.3870 p.m.,0.13,0.62,1.8,-0.12,-0.13,-0.31
2022-02-17 5:50:41.3970 p.m.,0.23,0.67,1.75,-0.17,-0.13,-0.28
2022-02-17 5:50:41.4070 p.m.,0.3,0.77,1.63,-0.19,-0.07,-0.25
2022-02-17 5:50:41.4170 p.m.,0.27,0.84,1.57,-0.19,0.01,-0.19
2022-02-17 5:50:41.4270 p.m.,0.2,0.97,1.58,-0.18,0.1,-0.14
2022-02-17 5:50:41.4370 p.m.,0.21,1.14,1.65,-0.2,0.14,-0.11
2022-02-17 5:50:41.4470 p.m.,0.1,1.15,1.89,-0.22,0.15,-0.08
2022-02-17 5:50:41.4570 p.m.,-0.08,1.08,2.13,-0.23,0.17,-0.05
2022-02-17 5:50:41.4670 p.m.,-0.22,1.0,2.06,-0.24,0.25,0.01
2022-02-17 5:50:41.4770 p.m.,-0.33,0.89,1.81,-0.27,0.31,0.08
2022-02-17 5:50:41.4870 p.m.,-0.43,0.83,1.65,-0.34,0.31,0.16
2022-02-17 5:50:41.4970 p.m.,-0.53,0.71,1.78,-0.41,0.19,0.23
2022-02-17 5:50:41.5070 p.m.,-0.68,0.45,2.02,-0.41,-0.04,0.25
2022-02-17 5:50:41.5170 p.m.,-0.82,0.0,2.12,-0.37,-0.31,0.24
2022-02-17 5:50:41.5270 p.m.,-0.9,-0.45,1.93,-0.26,-0.55,0.21
2022-02-17 5:50:41.5370 p.m.,-0.85,-0.74,1.37,-0.14,-0.67,0.17
2022-02-17 5:50:41.5470 p.m.,-0.67,-0.88,0.48,-0.02,-0.64,0.13
2022-02-17 5:50:41.5570 p.m.,-0.43,-0.94,-0.45,0.1,-0.52,0.1
2022-02-17 5:50:41.5670 p.m.,-0.16,-0.82,-1.16,0.23,-0.36,0.09
2022-02-17 5:50:41.5770 p.m.,0.07,-0.67,-1.61,0.31,-0.17,0.1
2022-02-17 5:50:41.5880 p.m.,0.29,-0.53,-1.76,0.37,-0.05,0.08
2022-02-17 5:50:41.5980 p.m.,0.44,-0.46,-1.65,0.37,0.02,0.03
2022-02-17 5:50:41.6070 p.m.,0.46,-0.52,-1.46,0.34,0.08,-0.02
2022-02-17 5:50:41.6180 p.m.,0.47,-0.51,-1.31,0.28,0.16,-0.05
2022-02-17 5:50:41.6280 p.m.,0.48,-0.32,-1.27,0.18,0.27,-0.02
2022-02-17 5:50:41.6380 p.m.,0.44,0.0,-1.22,0.07,0.35,0.07
2022-02-17 5:50:41.6480 p.m.,0.34,0.3,-0.99,-0.08,0.36,0.17
2022-02-17 5:50:41.6580 p.m.,0.21,0.39,-0.54,-0.23,0.29,0.29
2022-02-17 5:50:41.6680 p.m.,0.05,0.35,0.04,-0.35,0.13,0.4
2022-02-17 5:50:41.6780 p.m.,-0.02,0.25,0.53,-0.43,-0.1,0.46
2022-02-17 5:50:41.6880 p.m.,-0.11,-0.08,0.87,-0.47,-0.33,0.46
2022-02-17 5:50:41.6980 p.m.,-0.07,-0.44,0.96,-0.45,-0.51,0.42
2022-02-17 5:50:41.7080 p.m.,0.07,-0.7,0.68,-0.37,-0.59,0.35
2022-02-17 5:50:41.7180 p.m.,0.29,-0.84,0.13,-0.26,-0.58,0.26
2022-02-17 5:50:41.7280 p.m.,0.46,-0.89,-0.52,-0.17,-0.52,0.17
2022-02-17 5:50:41.7380 p.m.,0.61,-0.79,-1.07,-0.12,-0.4,0.08
2022-02-17 5:50:41.7480 p.m.,0.66,-0.64,-1.55,-0.1,-0.23,0.02
2022-02-17 5:50:41.7580 p.m.,0.75,-0.34,-1.9,-0.11,-0.09,-0.03
2022-02-17 5:50:41.7680 p.m.,0.73,-0.11,-2.07,-0.12,0.01,-0.06
2022-02-17 5:50:41.7780 p.m.,0.61,0.12,-2.06,-0.15,0.05,-0.07
2022-02-17 5:50:41.7880 p.m.,0.48,0.36,-1.9,-0.19,0.04,-0.07
2022-02-17 5:50:41.7980 p.m.,0.32,0.6,-1.66,-0.23,-0.01,-0.05
2022-02-17 5:50:41.8080 p.m.,0.2,0.72,-1.44,-0.24,-0.06,-0.05
2022-02-17 5:50:41.8190 p.m.,0.15,0.76,-1.25,-0.23,-0.1,-0.07
2022-02-17 5:50:41.8280 p.m.,0.08,0.7,-1.17,-0.22,-0.08,-0.09
2022-02-17 5:50:41.8390 p.m.,0.17,0.72,-1.23,-0.23,-0.0,-0.11
2022-02-17 5:50:41.8490 p.m.,0.23,0.81,-1.28,-0.26,0.07,-0.11
2022-02-17 5:50:41.8590 p.m.,0.23,0.91,-1.16,-0.3,0.12,-0.1
2022-02-17 5:50:41.8690 p.m.,0.22,1.02,-0.82,-0.31,0.12,-0.1
2022-02-17 5:50:41.8790 p.m.,0.11,1.02,-0.39,-0.28,0.04,-0.11
2022-02-17 5:50:41.8890 p.m.,-0.03,0.92,0.0,-0.25,-0.08,-0.14
2022-02-17 5:50:41.8990 p.m.,-0.11,0.77,0.31,-0.16,-0.21,-0.17
2022-02-17 5:50:41.9090 p.m.,-0.2,0.63,0.48,-0.03,-0.31,-0.22
2022-02-17 5:50:41.9190 p.m.,-0.23,0.53,0.41,0.11,-0.35,-0.26
2022-02-17 5:50:41.9290 p.m.,-0.21,0.49,0.14,0.21,-0.3,-0.29
2022-02-17 5:50:41.9390 p.m.,-0.06,0.64,-0.23,0.26,-0.22,-0.3
2022-02-17 5:50:41.9490 p.m.,0.12,0.85,-0.41,0.26,-0.16,-0.31
2022-02-17 5:50:41.9590 p.m.,0.26,1.01,-0.36,0.27,-0.14,-0.32
2022-02-17 5:50:41.9690 p.m.,0.3,1.04,-0.19,0.3,-0.14,-0.34
2022-02-17 5:50:41.9790 p.m.,0.33,1.04,-0.01,0.32,-0.12,-0.35
2022-02-17 5:50:41.9890 p.m.,0.37,1.02,0.13,0.33,-0.08,-0.35
2022-02-17 5:50:41.9990 p.m.,0.38,0.99,0.3,0.29,-0.01,-0.33
2022-02-17 5:50:42.0090 p.m.,0.4,0.98,0.58,0.22,0.05,-0.29
2022-02-17 5:50:42.0190 p.m.,0.36,0.94,1.04,0.18,0.04,-0.26
2022-02-17 5:50:42.0290 p.m.,0.26,0.74,1.71,0.18,-0.07,-0.27
2022-02-17 5:50:42.0390 p.m.,0.19,0.51,2.2,0.27,-0.27,-0.28
2022-02-17 5:50:42.0500 p.m.,0.1,0.33,2.48,0.39,-0.45,-0.28
2022-02-17 5:50:42.0600 p.m.,0.21,0.35,2.47,0.5,-0.55,-0.26
2022-02-17 5:50:42.0700 p.m.,0.38,0.6,2.03,0.53,-0.52,-0.25
2022-02-17 5:50:42.0800 p.m.,0.72,0.84,1.36,0.46,-0.41,-0.23
2022-02-17 5:50:42.0900 p.m.,1.06,1.12,0.9,0.29,-0.26,-0.17
2022-02-17 5:50:42.1000 p.m.,1.26,1.5,0.67,0.04,-0.08,-0.1
2022-02-17 5:50:42.1100 p.m.,1.45,1.79,0.65,-0.28,0.02,-0.04
2022-02-17 5:50:42.1200 p.m.,1.41,1.74,1.02,-0.58,0.05,0.02
2022-02-17 5:50:42.1300 p.m.,1.09,1.42,1.68,-0.74,-0.0,0.09
2022-02-17 5:50:42.1400 p.m.,0.68,1.01,2.33,-0.72,-0.14,0.12
2022-02-17 5:50:42.1500 p.m.,0.29,0.39,2.87,-0.56,-0.34,0.1
2022-02-17 5:50:42.1600 p.m.,-0.05,-0.38,3.18,-0.29,-0.61,0.03
2022-02-17 5:50:42.1700 p.m.,-0.36,-1.04,3.21,-0.03,-0.79,-0.05
2022-02-17 5:50:42.1800 p.m.,-0.42,-1.44,2.71,0.13,-0.8,-0.13
2022-02-17 5:50:42.1900 p.m.,-0.23,-1.45,1.93,0.22,-0.78,-0.2
2022-02-17 5:50:42.2000 p.m.,-0.08,-1.4,1.25,0.29,-0.75,-0.28
2022-02-17 5:50:42.2100 p.m.,-0.04,-1.37,0.65,0.32,-0.66,-0.34
2022-02-17 5:50:42.2200 p.m.,0.03,-1.3,0.1,0.32,-0.54,-0.38
2022-02-17 5:50:42.2300 p.m.,0.18,-1.14,-0.37,0.3,-0.41,-0.43
2022-02-17 5:50:42.2400 p.m.,0.25,-1.06,-0.68,0.27,-0.28,-0.46
2022-02-17 5:50:42.2500 p.m.,0.27,-1.02,-0.86,0.26,-0.18,-0.48
2022-02-17 5:50:42.2600 p.m.,0.2,-1.01,-0.82,0.26,-0.07,-0.49
2022-02-17 5:50:42.2700 p.m.,0.13,-0.99,-0.61,0.28,0.02,-0.47
2022-02-17 5:50:42.2800 p.m.,0.06,-0.91,-0.39,0.33,0.06,-0.44
2022-02-17 5:50:42.2900 p.m.,-0.07,-0.87,-0.13,0.36,0.11,-0.4
2022-02-17 5:50:42.3010 p.m.,-0.21,-0.87,0.05,0.37,0.13,-0.33
2022-02-17 5:50:42.3110 p.m.,-0.26,-0.7,0.16,0.34,0.13,-0.25
2022-02-17 5:50:42.3210 p.m.,-0.36,-0.61,0.28,0.27,0.09,-0.17
2022-02-17 5:50:42.3310 p.m.,-0.48,-0.6,0.39,0.19,0.03,-0.1
2022-02-17 5:50:42.3410 p.m.,-0.53,-0.62,0.42,0.12,-0.04,-0.04
2022-02-17 5:50:42.3510 p.m.,-0.59,-0.66,0.37,0.07,-0.1,0.01
2022-02-17 5:50:42.3610 p.m.,-0.67,-0.79,0.16,0.05,-0.15,0.06
2022-02-17 5:50:42.3710 p.m.,-0.7,-0.82,-0.16,0.05,-0.18,0.08
2022-02-17 5:50:42.3810 p.m.,-0.72,-0.85,-0.52,0.07,-0.18,0.08
2022-02-17 5:50:42.3910 p.m.,-0.74,-0.9,-0.95,0.1,-0.15,0.07
2022-02-17 5:50:42.4010 p.m.,-0.77,-0.87,-1.41,0.12,-0.06,0.08
2022-02-17 5:50:42.4110 p.m.,-0.69,-0.7,-1.82,0.15,0.01,0.08
2022-02-17 5:50:42.4210 p.m.,-0.69,-0.54,-2.1,0.16,0.08,0.09
2022-02-17 5:50:42.4310 p.m.,-0.76,-0.48,-2.17,0.16,0.14,0.12
2022-02-17 5:50:42.4410 p.m.,-0.8,-0.23,-2.23,0.15,0.18,0.16
2022-02-17 5:50:42.4510 p.m.,-0.84,0.0,-2.28,0.1,0.21,0.23
2022-02-17 5:50:42.4610 p.m.,-0.95,0.19,-2.22,0.03,0.21,0.31
2022-02-17 5:50:42.4710 p.m.,-0.94,0.38,-2.09,-0.03,0.17,0.37
2022-02-17 5:50:42.4810 p.m.,-0.95,0.45,-1.94,-0.06,0.11,0.41
2022-02-17 5:50:42.4910 p.m.,-0.93,0.42,-1.84,-0.09,0.06,0.43
2022-02-17 5:50:42.5010 p.m.,-0.84,0.32,-1.78,-0.08,0.03,0.43
2022-02-17 5:50:42.5110 p.m.,-0.72,0.22,-1.74,-0.02,0.04,0.42
2022-02-17 5:50:42.5230 p.m.,-0.59,0.16,-1.83,0.03,0.14,0.43
2022-02-17 5:50:42.5320 p.m.,-0.42,0.21,-2.01,0.08,0.28,0.45
2022-02-17 5:50:42.5420 p.m.,-0.22,0.31,-2.06,0.13,0.4,0.49
2022-02-17 5:50:42.5520 p.m.,-0.11,0.38,-1.9,0.14,0.45,0.52
2022-02-17 5:50:42.5620 p.m.,0.08,0.46,-1.48,0.13,0.43,0.52
