time,ax,ay,az,wx,wy,wz
2022-02-17 5:46:32.2530 p.m.,-0.01,-0.02,-0.49,-0.17,0.54,-0.13
2022-02-17 5:46:32.2660 p.m.,-0.02,0.86,-1.55,-0.17,0.54,-0.13
2022-02-17 5:46:32.2730 p.m.,-0.24,0.91,-1.11,0.05,0.59,0.03
2022-02-17 5:46:32.2840 p.m.,-0.26,0.71,-0.48,0.07,0.42,0.04
2022-02-17 5:46:32.2940 p.m.,-0.28,0.67,0.34,-0.01,0.17,0.02
2022-02-17 5:46:32.3040 p.m.,-0.36,0.67,0.89,-0.14,-0.03,0.05
2022-02-17 5:46:32.3140 p.m.,-0.14,0.92,0.79,-0.27,-0.18,0.06
2022-02-17 5:46:32.3240 p.m.,-0.07,0.89,0.61,-0.34,-0.26,0.06
2022-02-17 5:46:32.3340 p.m.,0,0.89,0.29,-0.36,-0.24,0.08
2022-02-17 5:46:32.3450 p.m.,0.14,1.02,-0.06,-0.33,-0.16,0.13
2022-02-17 5:46:32.3540 p.m.,0.3,1.07,-0.3,-0.27,-0.06,0.16
2022-02-17 5:46:32.3640 p.m.,0.38,0.95,-0.37,-0.19,0.04,0.18
2022-02-17 5:46:32.3740 p.m.,0.49,0.87,-0.38,-0.13,0.12,0.18
2022-02-17 5:46:32.3840 p.m.,0.57,0.82,-0.28,-0.1,0.16,0.16
2022-02-17 5:46:32.3950 p.m.,0.53,0.7,-0.03,-0.11,0.14,0.13
2022-02-17 5:46:32.4040 p.m.,0.51,0.63,0.24,-0.14,0.1,0.11
2022-02-17 5:46:32.4140 p.m.,0.49,0.67,0.38,-0.17,0.05,0.09
2022-02-17 5:46:32.4240 p.m.,0.43,0.68,0.44,-0.2,0,0.09
2022-02-17 5:46:32.4340 p.m.,0.37,0.7,0.42,-0.22,-0.04,0.1
2022-02-17 5:46:32.4440 p.m.,0.35,0.72,0.32,-0.23,-0.07,0.11
2022-02-17 5:46:32.4540 p.m.,0.32,0.69,0.2,-0.22,-0.09,0.11
2022-02-17 5:46:32.4650 p.m.,0.31,0.59,0.08,-0.17,-0.13,0.1
2022-02-17 5:46:32.4750 p.m.,0.35,0.51,-0.06,-0.1,-0.15,0.07
2022-02-17 5:46:32.4840 p.m.,0.45,0.52,-0.27,-0.05,-0.15,0.04
2022-02-17 5:46:32.4950 p.m.,0.55,0.58,-0.52,0.01,-0.12,0.01
2022-02-17 5:46:32.5050 p.m.,0.62,0.7,-0.79,0.03,-0.07,0.01
2022-02-17 5:46:32.5150 p.m.,0.7,0.85,-0.93,0.04,-0.03,0.01
2022-02-17 5:46:32.5250 p.m.,0.75,0.95,-0.96,0.04,-0.01,-0.01
2022-02-17 5:46:32.5350 p.m.,0.71,0.94,-0.92,0.03,-0.02,-0.03
2022-02-17 5:46:32.5450 p.m.,0.71,0.95,-0.88,0,-0.02,-0.05
2022-02-17 5:46:32.5550 p.m.,0.7,1.01,-0.9,-0.03,-0.01,-0.06
2022-02-17 5:46:32.5650 p.m.,0.7,1.1,-0.93,-0.06,0.02,-0.06
2022-02-17 5:46:32.5750 p.m.,0.73,1.17,-0.92,-0.09,0.05,-0.05
2022-02-17 5:46:32.5850 p.m.,0.69,1.21,-0.81,-0.11,0.07,-0.04
2022-02-17 5:46:32.5950 p.m.,0.6,1.26,-0.63,-0.11,0.08,-0.02
2022-02-17 5:46:32.6050 p.m.,0.56,1.32,-0.5,-0.12,0.09,0.02
2022-02-17 5:46:32.6150 p.m.,0.54,1.39,-0.33,-0.14,0.09,0.05
2022-02-17 5:46:32.6250 p.m.,0.53,1.41,-0.21,-0.17,0.09,0.07
2022-02-17 5:46:32.6350 p.m.,0.57,1.39,-0.07,-0.2,0.09,0.1
2022-02-17 5:46:32.6450 p.m.,0.59,1.37,0.11,-0.21,0.07,0.11
2022-02-17 5:46:32.6550 p.m.,0.55,1.26,0.23,-0.21,0.05,0.12
2022-02-17 5:46:32.6650 p.m.,0.53,1.2,0.26,-0.2,0.05,0.14
2022-02-17 5:46:32.6750 p.m.,0.56,1.21,0.21,-0.18,0.07,0.16
2022-02-17 5:46:32.6860 p.m.,0.56,1.2,0.15,-0.16,0.09,0.16
2022-02-17 5:46:32.6950 p.m.,0.52,1.1,0.2,-0.13,0.09,0.15
2022-02-17 5:46:32.7050 p.m.,0.48,0.97,0.34,-0.09,0.08,0.13
2022-02-17 5:46:32.7160 p.m.,0.49,0.94,0.41,-0.03,0.06,0.11
2022-02-17 5:46:32.7260 p.m.,0.52,0.95,0.45,-0.03,0.06,0.11
2022-02-17 5:46:32.7360 p.m.,0.54,0.89,0.48,0.1,0.03,0.07
2022-02-17 5:46:32.7460 p.m.,0.58,0.87,0.4,0.17,0.04,0.06
2022-02-17 5:46:32.7560 p.m.,0.63,0.87,0.28,0.24,0.07,0.05
2022-02-17 5:46:32.7660 p.m.,0.63,0.86,0.19,0.29,0.12,0.06
2022-02-17 5:46:32.7760 p.m.,0.66,0.93,0.15,0.32,0.17,0.08
2022-02-17 5:46:32.7860 p.m.,0.72,0.99,0.22,0.31,0.2,0.09
2022-02-17 5:46:32.7960 p.m.,0.75,0.96,0.4,0.28,0.21,0.09
2022-02-17 5:46:32.8060 p.m.,0.76,0.92,0.62,0.25,0.18,0.09
2022-02-17 5:46:32.8160 p.m.,0.76,0.88,0.85,0.2,0.15,0.08
2022-02-17 5:46:32.8260 p.m.,0.7,0.86,0.95,0.15,0.12,0.08
2022-02-17 5:46:32.8360 p.m.,0.66,0.88,0.97,0.13,0.09,0.08
2022-02-17 5:46:32.8460 p.m.,0.54,0.86,0.95,0.09,0.08,0.1
2022-02-17 5:46:32.8560 p.m.,0.43,0.87,0.92,0.03,0.1,0.15
2022-02-17 5:46:32.8660 p.m.,0.43,0.92,0.93,0.03,0.1,0.15
2022-02-17 5:46:32.8760 p.m.,0.39,0.88,0.93,-0.09,0.14,0.24
2022-02-17 5:46:32.8860 p.m.,0.29,0.72,0.87,-0.14,0.17,0.27
2022-02-17 5:46:32.8960 p.m.,0.25,0.58,0.79,-0.17,0.2,0.28
2022-02-17 5:46:32.9060 p.m.,0.24,0.44,0.7,-0.16,0.19,0.28
2022-02-17 5:46:32.9160 p.m.,0.13,0.25,0.61,-0.13,0.16,0.28
2022-02-17 5:46:32.9260 p.m.,0.05,0.08,0.49,-0.09,0.13,0.27
2022-02-17 5:46:32.9370 p.m.,0.04,-0.02,0.32,-0.05,0.1,0.26
2022-02-17 5:46:32.9470 p.m.,0,-0.14,0.21,0,0.07,0.24
2022-02-17 5:46:32.9570 p.m.,-0.07,-0.25,0.11,0.07,0.05,0.21
2022-02-17 5:46:32.9670 p.m.,-0.09,-0.33,0.03,0.16,0.01,0.18
2022-02-17 5:46:32.9770 p.m.,-0.16,-0.44,-0.02,0.27,-0.06,0.15
2022-02-17 5:46:32.9870 p.m.,-0.21,-0.48,-0.06,0.36,-0.12,0.12
2022-02-17 5:46:32.9970 p.m.,-0.17,-0.45,-0.11,0.36,-0.12,0.12
2022-02-17 5:46:33.0070 p.m.,-0.23,-0.4,-0.25,0.56,-0.22,0.08
2022-02-17 5:46:33.0170 p.m.,-0.23,-0.26,-0.52,0.63,-0.19,0.09
2022-02-17 5:46:33.0270 p.m.,-0.17,-0.07,-0.79,0.68,-0.12,0.09
2022-02-17 5:46:33.0370 p.m.,-0.2,0,-1.01,0.67,-0.03,0.09
2022-02-17 5:46:33.0470 p.m.,-0.27,0.13,-1.14,0.6,0.09,0.1
2022-02-17 5:46:33.0570 p.m.,-0.37,0.25,-1.07,0.5,0.18,0.13
2022-02-17 5:46:33.0670 p.m.,-0.55,0.3,-0.84,0.39,0.22,0.17
2022-02-17 5:46:33.0770 p.m.,-0.76,0.29,-0.64,0.39,0.22,0.17
2022-02-17 5:46:33.0870 p.m.,-0.91,0.32,-0.48,0.13,0.26,0.27
2022-02-17 5:46:33.0970 p.m.,-0.98,0.35,-0.22,-0.03,0.22,0.33
2022-02-17 5:46:33.1070 p.m.,-1.04,0.27,0.1,-0.19,0.14,0.37
2022-02-17 5:46:33.1170 p.m.,-1.03,0.19,0.33,-0.32,0.04,0.39
2022-02-17 5:46:33.1270 p.m.,-0.94,0.09,0.39,-0.38,-0.04,0.39
2022-02-17 5:46:33.1370 p.m.,-0.87,-0.07,0.34,-0.35,-0.12,0.35
2022-02-17 5:46:33.1470 p.m.,-0.85,-0.17,0.18,-0.24,-0.17,0.3
2022-02-17 5:46:33.1570 p.m.,-0.77,-0.19,-0.14,-0.08,-0.19,0.25
2022-02-17 5:46:33.1670 p.m.,-0.68,-0.16,-0.56,0.08,-0.15,0.19
2022-02-17 5:46:33.1770 p.m.,-0.66,-0.1,-0.98,0.2,-0.05,0.14
2022-02-17 5:46:33.1870 p.m.,-0.59,0.11,-1.3,0.28,0.07,0.12
2022-02-17 5:46:33.1980 p.m.,-0.54,0.36,-1.44,0.31,0.15,0.11
2022-02-17 5:46:33.2080 p.m.,-0.57,0.52,-1.41,0.3,0.18,0.11
2022-02-17 5:46:33.2180 p.m.,-0.58,0.66,-1.22,0.26,0.13,0.11
2022-02-17 5:46:33.2280 p.m.,-0.58,0.73,-1.02,0.21,0.04,0.12
2022-02-17 5:46:33.2380 p.m.,-0.61,0.76,-0.97,0.17,-0.05,0.12
2022-02-17 5:46:33.2480 p.m.,-0.58,0.82,-1.07,0.14,-0.1,0.14
2022-02-17 5:46:33.2580 p.m.,-0.5,0.86,-1.25,0.12,-0.11,0.16
2022-02-17 5:46:33.2680 p.m.,-0.44,0.87,-1.49,0.1,-0.07,0.18
2022-02-17 5:46:33.2780 p.m.,-0.31,0.91,-1.68,0.09,0,0.19
2022-02-17 5:46:33.2880 p.m.,-0.22,0.93,-1.77,0.08,0.07,0.19
2022-02-17 5:46:33.2980 p.m.,-0.2,0.9,-1.71,0.06,0.1,0.17
2022-02-17 5:46:33.3080 p.m.,-0.2,0.9,-1.56,0.02,0.11,0.15
2022-02-17 5:46:33.3180 p.m.,-0.18,0.94,-1.35,-0.02,0.08,0.11
2022-02-17 5:46:33.3280 p.m.,-0.19,0.92,-1.15,-0.06,0.04,0.07
2022-02-17 5:46:33.3380 p.m.,-0.19,0.91,-1.02,-0.1,-0.02,0.02
2022-02-17 5:46:33.3490 p.m.,-0.16,0.99,-0.91,-0.11,-0.08,0
2022-02-17 5:46:33.3580 p.m.,-0.17,1.09,-0.85,-0.1,-0.13,0
2022-02-17 5:46:33.3680 p.m.,-0.1,1.18,-0.81,-0.05,-0.17,-0.01
2022-02-17 5:46:33.3780 p.m.,-0.02,1.26,-0.75,-0.05,-0.17,-0.01
2022-02-17 5:46:33.3880 p.m.,0.08,1.21,-0.64,0.04,-0.23,-0.06
2022-02-17 5:46:33.3980 p.m.,0.14,1.13,-0.51,0.06,-0.23,-0.11
2022-02-17 5:46:33.4080 p.m.,0.25,1.09,-0.37,0.08,-0.21,-0.17
2022-02-17 5:46:33.4190 p.m.,0.33,1.08,-0.23,0.1,-0.18,-0.22
2022-02-17 5:46:33.4280 p.m.,0.4,1.13,-0.1,0.14,-0.13,-0.26
2022-02-17 5:46:33.4390 p.m.,0.4,1.16,0.1,0.18,-0.06,-0.3
2022-02-17 5:46:33.4490 p.m.,0.34,1.08,0.41,0.22,0,-0.34
2022-02-17 5:46:33.4590 p.m.,0.18,1,0.76,0.26,0.02,-0.36
2022-02-17 5:46:33.4690 p.m.,0.03,0.94,1.2,0.28,0.01,-0.35
2022-02-17 5:46:33.4790 p.m.,0.04,0.98,1.64,0.32,-0.06,-0.32
2022-02-17 5:46:33.4890 p.m.,0.08,1,2,0.39,-0.2,-0.28
2022-02-17 5:46:33.4990 p.m.,0.21,0.98,2.24,0.48,-0.36,-0.27
2022-02-17 5:46:33.5090 p.m.,0.32,0.89,2.2,0.54,-0.47,-0.28
2022-02-17 5:46:33.5190 p.m.,0.54,0.83,1.83,0.54,-0.48,-0.3
2022-02-17 5:46:33.5290 p.m.,0.82,0.94,1.49,0.49,-0.42,-0.31
2022-02-17 5:46:33.5390 p.m.,0.98,1.13,1.23,0.38,-0.31,-0.3
2022-02-17 5:46:33.5490 p.m.,1.11,1.32,1.08,0.22,-0.16,-0.27
2022-02-17 5:46:33.5590 p.m.,1.15,1.28,1.13,0.02,-0.04,-0.27
2022-02-17 5:46:33.5690 p.m.,0.98,1.03,1.34,-0.17,0.04,-0.27
2022-02-17 5:46:33.5790 p.m.,0.7,0.64,1.59,-0.31,0.05,-0.28
2022-02-17 5:46:33.5890 p.m.,0.46,0.24,1.89,-0.38,-0.01,-0.3
2022-02-17 5:46:33.5990 p.m.,0.26,-0.16,2.04,-0.37,-0.12,-0.33
2022-02-17 5:46:33.6090 p.m.,0.09,-0.59,1.97,-0.29,-0.24,-0.38
2022-02-17 5:46:33.6190 p.m.,-0.01,-0.96,1.63,-0.13,-0.34,-0.44
2022-02-17 5:46:33.6300 p.m.,0.04,-1.14,1.03,-0.13,-0.34,-0.44
2022-02-17 5:46:33.6390 p.m.,0.11,-1.17,0.35,0.18,-0.31,-0.55
2022-02-17 5:46:33.6490 p.m.,0.3,-1.12,-0.13,0.27,-0.24,-0.59
2022-02-17 5:46:33.6600 p.m.,0.46,-1.02,-0.5,0.29,-0.17,-0.63
2022-02-17 5:46:33.6700 p.m.,0.58,-0.94,-0.6,0.25,-0.15,-0.67
2022-02-17 5:46:33.6800 p.m.,0.65,-0.9,-0.46,0.19,-0.18,-0.7
2022-02-17 5:46:33.6900 p.m.,0.64,-0.85,-0.29,0.15,-0.28,-0.72
2022-02-17 5:46:33.7000 p.m.,0.62,-0.82,-0.21,0.15,-0.37,-0.74
2022-02-17 5:46:33.7100 p.m.,0.67,-0.79,-0.28,0.19,-0.41,-0.76
2022-02-17 5:46:33.7200 p.m.,0.69,-0.71,-0.51,0.26,-0.4,-0.77
2022-02-17 5:46:33.7300 p.m.,0.74,-0.61,-0.77,0.31,-0.31,-0.76
2022-02-17 5:46:33.7400 p.m.,0.8,-0.43,-1.02,0.35,-0.17,-0.74
2022-02-17 5:46:33.7500 p.m.,0.8,-0.27,-1.1,0.34,-0.02,-0.71
2022-02-17 5:46:33.7600 p.m.,0.77,-0.14,-1.02,0.31,0.09,-0.66
2022-02-17 5:46:33.7700 p.m.,0.65,-0.04,-0.81,0.25,0.13,-0.6
2022-02-17 5:46:33.7800 p.m.,0.51,0.01,-0.48,0.16,0.1,-0.52
2022-02-17 5:46:33.7900 p.m.,0.36,-0.02,-0.2,0.06,0.03,-0.45
2022-02-17 5:46:33.8000 p.m.,0.24,-0.07,0.03,-0.05,-0.06,-0.36
2022-02-17 5:46:33.8100 p.m.,0.12,-0.14,0.21,-0.14,-0.18,-0.29
2022-02-17 5:46:33.8200 p.m.,0,-0.23,0.24,-0.18,-0.29,-0.21
2022-02-17 5:46:33.8300 p.m.,-0.01,-0.33,0.15,-0.18,-0.37,-0.16
2022-02-17 5:46:33.8400 p.m.,0.04,-0.42,-0.09,-0.14,-0.4,-0.13
2022-02-17 5:46:33.8500 p.m.,0.13,-0.51,-0.46,-0.07,-0.38,-0.11
2022-02-17 5:46:33.8600 p.m.,0.28,-0.53,-0.83,0,-0.32,-0.1
2022-02-17 5:46:33.8700 p.m.,0.43,-0.5,-1.15,0.06,-0.25,-0.1
2022-02-17 5:46:33.8800 p.m.,0.55,-0.52,-1.35,0.09,-0.19,-0.11
2022-02-17 5:46:33.8900 p.m.,0.57,-0.53,-1.45,0.09,-0.16,-0.13
2022-02-17 5:46:33.9000 p.m.,0.59,-0.45,-1.48,0.06,-0.13,-0.15
2022-02-17 5:46:33.9100 p.m.,0.58,-0.33,-1.49,0,-0.14,-0.16
2022-02-17 5:46:33.9200 p.m.,0.55,-0.26,-1.42,-0.05,-0.16,-0.16
2022-02-17 5:46:33.9310 p.m.,0.53,-0.15,-1.41,-0.09,-0.18,-0.15
2022-02-17 5:46:33.9410 p.m.,0.49,-0.02,-1.5,-0.11,-0.18,-0.14
2022-02-17 5:46:33.9510 p.m.,0.5,0.05,-1.53,-0.1,-0.18,-0.15
2022-02-17 5:46:33.9610 p.m.,0.44,0.02,-1.54,-0.06,-0.16,-0.17
2022-02-17 5:46:33.9710 p.m.,0.39,0.06,-1.6,-0.01,-0.11,-0.18
2022-02-17 5:46:33.9810 p.m.,0.44,0.21,-1.68,-0.01,-0.11,-0.18
2022-02-17 5:46:33.9910 p.m.,0.5,0.4,-1.63,0.04,0.07,-0.15
2022-02-17 5:46:34.0010 p.m.,0.5,0.48,-1.41,0.01,0.12,-0.13
2022-02-17 5:46:34.0110 p.m.,0.48,0.53,-1.02,-0.04,0.1,-0.12
2022-02-17 5:46:34.0210 p.m.,0.49,0.54,-0.64,-0.08,0.05,-0.13
2022-02-17 5:46:34.0310 p.m.,0.46,0.48,-0.33,-0.07,-0.02,-0.16
2022-02-17 5:46:34.0410 p.m.,0.43,0.46,-0.25,-0.03,-0.06,-0.17
2022-02-17 5:46:34.0510 p.m.,0.4,0.53,-0.36,0.02,-0.01,-0.16
2022-02-17 5:46:34.0610 p.m.,0.38,0.68,-0.51,0.05,0.11,-0.11
2022-02-17 5:46:34.0710 p.m.,0.39,0.9,-0.49,0.04,0.25,-0.04
2022-02-17 5:46:34.0810 p.m.,0.38,0.99,-0.15,0.02,0.33,0.01
2022-02-17 5:46:34.0910 p.m.,0.28,0.92,0.41,0.01,0.34,0.05
2022-02-17 5:46:34.1010 p.m.,0.25,0.84,0.95,0.02,0.28,0.07
2022-02-17 5:46:34.1110 p.m.,0.25,0.78,1.39,0.05,0.2,0.09
2022-02-17 5:46:34.1220 p.m.,0.32,0.74,1.6,0.08,0.15,0.12
2022-02-17 5:46:34.1320 p.m.,0.47,0.84,1.59,0.1,0.15,0.13
2022-02-17 5:46:34.1420 p.m.,0.65,0.97,1.59,0.1,0.2,0.15
2022-02-17 5:46:34.1520 p.m.,0.68,1.07,1.63,0.08,0.3,0.17
2022-02-17 5:46:34.1620 p.m.,0.56,1.1,1.72,0.03,0.42,0.2
2022-02-17 5:46:34.1720 p.m.,0.41,1.11,2,-0.05,0.47,0.23
2022-02-17 5:46:34.1820 p.m.,0.23,1.09,2.34,-0.05,0.47,0.23
2022-02-17 5:46:34.1920 p.m.,0.04,0.98,2.56,-0.17,0.38,0.31
2022-02-17 5:46:34.2020 p.m.,-0.1,0.83,2.43,-0.18,0.35,0.34
2022-02-17 5:46:34.2120 p.m.,-0.24,0.67,2.12,-0.18,0.35,0.34
2022-02-17 5:46:34.2220 p.m.,-0.37,0.45,1.79,-0.24,0.37,0.42
2022-02-17 5:46:34.2320 p.m.,-0.48,0.2,1.52,-0.36,0.41,0.44
2022-02-17 5:46:34.2420 p.m.,-0.54,-0.08,1.42,-0.36,0.41,0.44
2022-02-17 5:46:34.2520 p.m.,-0.5,-0.32,1.52,-0.59,0.27,0.42
2022-02-17 5:46:34.2620 p.m.,-0.53,-0.56,1.58,-0.58,0.07,0.39
2022-02-17 5:46:34.2720 p.m.,-0.46,-0.75,1.32,-0.49,-0.13,0.35
2022-02-17 5:46:34.2820 p.m.,-0.27,-0.88,0.84,-0.32,-0.28,0.29
2022-02-17 5:46:34.2920 p.m.,-0.1,-0.99,0.23,-0.11,-0.35,0.25
2022-02-17 5:46:34.3020 p.m.,0.13,-0.95,-0.35,0.11,-0.34,0.2
2022-02-17 5:46:34.3120 p.m.,0.35,-0.87,-0.88,0.28,-0.26,0.14
2022-02-17 5:46:34.3220 p.m.,0.56,-0.83,-1.21,0.38,-0.14,0.08
2022-02-17 5:46:34.3320 p.m.,0.67,-0.67,-1.37,0.42,0,0.02
2022-02-17 5:46:34.3430 p.m.,0.74,-0.49,-1.43,0.43,0.13,-0.03
2022-02-17 5:46:34.3520 p.m.,0.67,-0.36,-1.36,0.4,0.23,-0.09
2022-02-17 5:46:34.3620 p.m.,0.52,-0.16,-1.17,0.33,0.28,-0.11
2022-02-17 5:46:34.3720 p.m.,0.31,0.03,-0.83,0.25,0.29,-0.1
2022-02-17 5:46:34.3830 p.m.,0.1,0.14,-0.47,0.16,0.26,-0.06
2022-02-17 5:46:34.3930 p.m.,-0.16,0.23,-0.18,0.07,0.22,0.01
2022-02-17 5:46:34.4030 p.m.,-0.3,0.33,0.05,-0.03,0.17,0.11
2022-02-17 5:46:34.4130 p.m.,-0.38,0.3,0.21,-0.12,0.11,0.19
2022-02-17 5:46:34.4230 p.m.,-0.44,0.14,0.35,-0.19,0.02,0.23
2022-02-17 5:46:34.4330 p.m.,-0.4,-0.08,0.5,-0.21,-0.1,0.24
2022-02-17 5:46:34.4430 p.m.,-0.32,-0.29,0.56,-0.18,-0.25,0.21
2022-02-17 5:46:34.4530 p.m.,-0.22,-0.43,0.39,-0.12,-0.39,0.16
2022-02-17 5:46:34.4630 p.m.,-0.02,-0.43,0.05,-0.12,-0.39,0.16
2022-02-17 5:46:34.4730 p.m.,0.15,-0.32,-0.45,0.02,-0.45,0.08
2022-02-17 5:46:34.4830 p.m.,0.28,-0.2,-0.95,0.06,-0.38,0.05
2022-02-17 5:46:34.4930 p.m.,0.37,-0.1,-1.31,0.09,-0.28,0
2022-02-17 5:46:34.5030 p.m.,0.32,-0.04,-1.5,0.09,-0.28,0
2022-02-17 5:46:34.5130 p.m.,0.28,0.02,-1.51,0.14,-0.15,-0.11
2022-02-17 5:46:34.5230 p.m.,0.19,0.13,-1.45,0.17,-0.16,-0.16
2022-02-17 5:46:34.5330 p.m.,0.11,0.26,-1.4,0.2,-0.2,-0.2
2022-02-17 5:46:34.5430 p.m.,0.04,0.41,-1.4,0.22,-0.25,-0.23
2022-02-17 5:46:34.5530 p.m.,0.03,0.61,-1.53,0.24,-0.29,-0.23
2022-02-17 5:46:34.5630 p.m.,0.07,0.86,-1.71,0.24,-0.29,-0.23
2022-02-17 5:46:34.5730 p.m.,0,1.11,-1.91,0.21,-0.25,-0.16
2022-02-17 5:46:34.5830 p.m.,-0.06,1.32,-1.99,0.19,-0.22,-0.13
2022-02-17 5:46:34.5940 p.m.,-0.17,1.42,-1.96,0.17,-0.2,-0.1
2022-02-17 5:46:34.6040 p.m.,-0.23,1.48,-1.83,0.14,-0.2,-0.09
2022-02-17 5:46:34.6140 p.m.,-0.22,1.45,-1.52,0.1,-0.25,-0.12
2022-02-17 5:46:34.6240 p.m.,-0.25,1.34,-1.22,0.05,-0.3,-0.14
2022-02-17 5:46:34.6340 p.m.,-0.18,1.36,-1.01,0.02,-0.33,-0.16
2022-02-17 5:46:34.6440 p.m.,-0.05,1.41,-0.83,0.02,-0.36,-0.18
2022-02-17 5:46:34.6540 p.m.,0.03,1.38,-0.74,0.02,-0.36,-0.18
2022-02-17 5:46:34.6640 p.m.,0.1,1.35,-0.68,0.09,-0.31,-0.18
2022-02-17 5:46:34.6740 p.m.,0.16,1.3,-0.59,0.12,-0.25,-0.17
2022-02-17 5:46:34.6840 p.m.,0.24,1.19,-0.33,0.16,-0.23,-0.18
2022-02-17 5:46:34.6940 p.m.,0.32,0.92,0.12,0.21,-0.27,-0.25
2022-02-17 5:46:34.7040 p.m.,0.32,0.59,0.58,0.27,-0.33,-0.33
2022-02-17 5:46:34.7140 p.m.,0.5,0.45,0.83,0.29,-0.34,-0.41
2022-02-17 5:46:34.7240 p.m.,0.7,0.42,0.92,0.28,-0.3,-0.5
2022-02-17 5:46:34.7340 p.m.,0.81,0.34,1.03,0.21,-0.19,-0.57
2022-02-17 5:46:34.7440 p.m.,0.84,0.22,1.33,0.12,-0.05,-0.63
2022-02-17 5:46:34.7540 p.m.,0.8,0.04,1.82,0.07,0.04,-0.69
2022-02-17 5:46:34.7640 p.m.,0.67,-0.04,2.41,0.04,0.04,-0.71
2022-02-17 5:46:34.7740 p.m.,0.73,0.01,3.07,0.04,-0.07,-0.74
2022-02-17 5:46:34.7840 p.m.,0.71,0.01,3.61,0.05,-0.26,-0.8
2022-02-17 5:46:34.7940 p.m.,0.74,0,3.79,0.04,-0.44,-0.86
2022-02-17 5:46:34.8040 p.m.,0.94,0.01,3.67,-0.01,-0.56,-0.91
2022-02-17 5:46:34.8140 p.m.,1.12,-0.02,3.3,-0.07,-0.61,-0.94
2022-02-17 5:46:34.8240 p.m.,1.35,0.05,2.8,-0.12,-0.61,-0.96
2022-02-17 5:46:34.8340 p.m.,1.52,0.03,2.28,-0.15,-0.52,-0.98
2022-02-17 5:46:34.8450 p.m.,1.46,-0.35,1.77,-0.19,-0.38,-1.02
2022-02-17 5:46:34.8550 p.m.,1.34,-0.77,1.43,-0.25,-0.2,-1.12
2022-02-17 5:46:34.8650 p.m.,1.18,-1.27,1.31,-0.31,-0.07,-1.21
2022-02-17 5:46:34.8750 p.m.,1.09,-1.57,1.56,-0.28,-0.08,-1.29
2022-02-17 5:46:34.8850 p.m.,0.89,-1.76,1.7,-0.14,-0.2,-1.36
2022-02-17 5:46:34.8950 p.m.,0.66,-1.91,1.58,-0.14,-0.2,-1.36
2022-02-17 5:46:34.9050 p.m.,0.62,-1.97,1.24,0.26,-0.57,-1.44
2022-02-17 5:46:34.9150 p.m.,0.79,-1.9,0.65,0.38,-0.67,-1.45
2022-02-17 5:46:34.9250 p.m.,1.08,-1.72,0.01,0.41,-0.67,-1.47
2022-02-17 5:46:34.9350 p.m.,1.27,-1.6,-0.44,0.36,-0.62,-1.5
2022-02-17 5:46:34.9450 p.m.,1.39,-1.46,-0.74,0.36,-0.62,-1.5
2022-02-17 5:46:34.9550 p.m.,1.56,-1.29,-0.81,0.15,-0.49,-1.55
2022-02-17 5:46:34.9650 p.m.,1.59,-1.18,-0.76,0.11,-0.48,-1.57
2022-02-17 5:46:34.9750 p.m.,1.55,-1.06,-0.72,0.11,-0.48,-1.56
2022-02-17 5:46:34.9850 p.m.,1.47,-0.88,-0.74,0.11,-0.48,-1.56
2022-02-17 5:46:34.9950 p.m.,1.44,-0.76,-0.75,0.06,-0.46,-1.48
2022-02-17 5:46:35.0050 p.m.,1.47,-0.69,-0.68,-0.01,-0.42,-1.44
2022-02-17 5:46:35.0150 p.m.,1.34,-0.67,-0.77,-0.1,-0.34,-1.37
2022-02-17 5:46:35.0250 p.m.,1.39,-0.58,-0.75,-0.1,-0.34,-1.37
2022-02-17 5:46:35.0350 p.m.,1.34,-0.56,-0.71,-0.16,-0.24,-1.3
2022-02-17 5:46:35.0450 p.m.,1.15,-0.61,-0.6,-0.13,-0.11,-1.16
2022-02-17 5:46:35.0550 p.m.,1.01,-0.66,-0.44,-0.11,-0.1,-1.1
2022-02-17 5:46:35.0660 p.m.,0.9,-0.72,-0.25,-0.1,-0.16,-1.03
2022-02-17 5:46:35.0760 p.m.,0.85,-0.77,-0.09,-0.11,-0.26,-0.97
2022-02-17 5:46:35.0860 p.m.,0.81,-0.8,-0.06,-0.13,-0.38,-0.92
2022-02-17 5:46:35.0950 p.m.,0.82,-0.84,-0.11,-0.13,-0.38,-0.92
2022-02-17 5:46:35.1060 p.m.,0.88,-0.88,-0.19,-0.22,-0.56,-0.83
2022-02-17 5:46:35.1160 p.m.,0.91,-0.89,-0.36,-0.23,-0.61,-0.81
2022-02-17 5:46:35.1260 p.m.,0.91,-0.9,-0.58,-0.23,-0.63,-0.77
2022-02-17 5:46:35.1360 p.m.,0.93,-0.87,-0.76,-0.21,-0.63,-0.74
2022-02-17 5:46:35.1460 p.m.,0.95,-0.86,-0.91,-0.18,-0.65,-0.74
2022-02-17 5:46:35.1560 p.m.,0.92,-0.93,-1.01,-0.15,-0.65,-0.75
2022-02-17 5:46:35.1660 p.m.,0.93,-0.93,-1.11,-0.13,-0.65,-0.77
2022-02-17 5:46:35.1760 p.m.,0.94,-0.81,-1.29,-0.12,-0.61,-0.77
2022-02-17 5:46:35.1860 p.m.,0.95,-0.63,-1.48,-0.11,-0.56,-0.79
2022-02-17 5:46:35.1960 p.m.,0.93,-0.49,-1.58,-0.11,-0.49,-0.8
2022-02-17 5:46:35.2060 p.m.,0.85,-0.37,-1.56,-0.14,-0.42,-0.79
2022-02-17 5:46:35.2160 p.m.,0.8,-0.18,-1.49,-0.17,-0.37,-0.78
2022-02-17 5:46:35.2260 p.m.,0.74,-0.04,-1.36,-0.2,-0.33,-0.76
2022-02-17 5:46:35.2360 p.m.,0.69,0.05,-1.17,-0.2,-0.31,-0.75
2022-02-17 5:46:35.2460 p.m.,0.58,0.03,-0.99,-0.2,-0.31,-0.75
2022-02-17 5:46:35.2560 p.m.,0.48,0,-0.82,-0.18,-0.32,-0.74
2022-02-17 5:46:35.2660 p.m.,0.44,0.05,-0.61,-0.16,-0.37,-0.76
2022-02-17 5:46:35.2760 p.m.,0.48,0.17,-0.47,-0.15,-0.38,-0.76
2022-02-17 5:46:35.2860 p.m.,0.55,0.29,-0.45,-0.12,-0.36,-0.76
2022-02-17 5:46:35.2960 p.m.,0.58,0.36,-0.42,-0.09,-0.32,-0.77
2022-02-17 5:46:35.3060 p.m.,0.61,0.42,-0.37,-0.09,-0.32,-0.77
2022-02-17 5:46:35.3160 p.m.,0.66,0.51,-0.23,-0.08,-0.16,-0.76
2022-02-17 5:46:35.3270 p.m.,0.62,0.49,-0.01,-0.06,-0.09,-0.75
2022-02-17 5:46:35.3370 p.m.,0.59,0.46,0.27,0,-0.05,-0.72
2022-02-17 5:46:35.3470 p.m.,0.61,0.45,0.5,0.08,-0.03,-0.7
2022-02-17 5:46:35.3570 p.m.,0.7,0.39,0.71,0.15,-0.03,-0.68
2022-02-17 5:46:35.3670 p.m.,0.87,0.34,0.98,0.2,-0.05,-0.69
2022-02-17 5:46:35.3770 p.m.,1.01,0.28,1.2,0.2,-0.05,-0.69
2022-02-17 5:46:35.3870 p.m.,1.23,0.36,1.38,0.23,-0.11,-0.74
2022-02-17 5:46:35.3970 p.m.,1.4,0.58,1.5,0.23,-0.14,-0.74
2022-02-17 5:46:35.4070 p.m.,1.55,0.77,1.49,0.21,-0.1,-0.74
2022-02-17 5:46:35.4170 p.m.,1.54,0.83,1.43,0.11,-0.01,-0.74
2022-02-17 5:46:35.4270 p.m.,1.4,0.91,1.54,0.11,-0.01,-0.74
2022-02-17 5:46:35.4370 p.m.,1.3,1.12,1.81,-0.24,0.22,-0.69
2022-02-17 5:46:35.4470 p.m.,1.02,1.25,2.04,-0.39,0.27,-0.65
2022-02-17 5:46:35.4570 p.m.,0.7,1.11,2.21,-0.49,0.27,-0.61
2022-02-17 5:46:35.4670 p.m.,0.3,0.73,2.3,-0.57,0.26,-0.59
2022-02-17 5:46:35.4770 p.m.,0,0.36,2.31,-0.62,0.23,-0.57
2022-02-17 5:46:35.4870 p.m.,-0.17,0.11,2.38,-0.61,0.09,-0.54
2022-02-17 5:46:35.4970 p.m.,-0.3,-0.14,2.36,-0.55,-0.13,-0.51
2022-02-17 5:46:35.5070 p.m.,-0.29,-0.36,2.14,-0.43,-0.41,-0.49
2022-02-17 5:46:35.5170 p.m.,-0.16,-0.55,1.64,-0.29,-0.67,-0.48
2022-02-17 5:46:35.5280 p.m.,0.05,-0.64,0.89,-0.29,-0.67,-0.48
2022-02-17 5:46:35.5370 p.m.,0.43,-0.64,0.06,0.01,-0.92,-0.5
2022-02-17 5:46:35.5480 p.m.,0.71,-0.63,-0.73,0.12,-0.89,-0.53
2022-02-17 5:46:35.5580 p.m.,0.98,-0.43,-1.3,0.17,-0.77,-0.54
2022-02-17 5:46:35.5680 p.m.,1.2,-0.16,-1.6,0.16,-0.61,-0.55
2022-02-17 5:46:35.5780 p.m.,1.28,0.04,-1.62,0.11,-0.44,-0.55
2022-02-17 5:46:35.5880 p.m.,1.28,0.16,-1.43,0.05,-0.33,-0.57
2022-02-17 5:46:35.5980 p.m.,1.11,0.18,-1,0.03,-0.27,-0.6
2022-02-17 5:46:35.6080 p.m.,0.86,0.17,-0.47,0.04,-0.26,-0.63
2022-02-17 5:46:35.6180 p.m.,0.66,0.23,-0.12,0.09,-0.26,-0.63
2022-02-17 5:46:35.6280 p.m.,0.44,0.29,0.01,0.17,-0.25,-0.62
2022-02-17 5:46:35.6380 p.m.,0.25,0.32,-0.02,0.21,-0.18,-0.58
2022-02-17 5:46:35.6480 p.m.,0.14,0.42,-0.11,0.22,-0.09,-0.5
2022-02-17 5:46:35.6580 p.m.,0.06,0.51,-0.12,0.19,0,-0.41
2022-02-17 5:46:35.6680 p.m.,-0.09,0.49,-0.02,0.11,0.03,-0.31
2022-02-17 5:46:35.6780 p.m.,-0.15,0.42,0.29,0.02,-0.05,-0.23
2022-02-17 5:46:35.6880 p.m.,-0.13,0.21,0.64,-0.05,-0.22,-0.19
2022-02-17 5:46:35.6980 p.m.,-0.13,-0.01,0.76,-0.08,-0.44,-0.18
2022-02-17 5:46:35.7080 p.m.,-0.02,-0.1,0.62,-0.1,-0.62,-0.17
2022-02-17 5:46:35.7180 p.m.,0.17,-0.19,0.3,-0.09,-0.71,-0.17
2022-02-17 5:46:35.7280 p.m.,0.36,-0.24,-0.2,-0.06,-0.73,-0.19
2022-02-17 5:46:35.7380 p.m.,0.52,-0.23,-0.69,-0.03,-0.68,-0.22
2022-02-17 5:46:35.7480 p.m.,0.61,-0.21,-1.06,0,-0.59,-0.27
2022-02-17 5:46:35.7590 p.m.,0.62,-0.15,-1.27,0.02,-0.49,-0.33
2022-02-17 5:46:35.7690 p.m.,0.57,-0.15,-1.47,0.04,-0.38,-0.4
2022-02-17 5:46:35.7780 p.m.,0.48,-0.07,-1.57,0.05,-0.28,-0.45
2022-02-17 5:46:35.7890 p.m.,0.4,0.08,-1.56,0.05,-0.22,-0.48
2022-02-17 5:46:35.7980 p.m.,0.27,0.22,-1.44,0.03,-0.2,-0.49
2022-02-17 5:46:35.8090 p.m.,0.18,0.38,-1.27,0.03,-0.2,-0.49
2022-02-17 5:46:35.8190 p.m.,0.15,0.49,-1.13,-0.04,-0.28,-0.47
2022-02-17 5:46:35.8290 p.m.,0.12,0.53,-1.12,-0.04,-0.28,-0.47
2022-02-17 5:46:35.8390 p.m.,0.16,0.58,-1.15,-0.12,-0.33,-0.45
2022-02-17 5:46:35.8490 p.m.,0.16,0.6,-1.24,-0.15,-0.28,-0.45
2022-02-17 5:46:35.8590 p.m.,0.14,0.63,-1.31,-0.15,-0.2,-0.44
2022-02-17 5:46:35.8690 p.m.,0.12,0.61,-1.19,-0.11,-0.16,-0.45
2022-02-17 5:46:35.8790 p.m.,0.02,0.54,-1.01,-0.11,-0.16,-0.45
2022-02-17 5:46:35.8890 p.m.,-0.01,0.49,-0.81,0.03,-0.19,-0.49
2022-02-17 5:46:35.8990 p.m.,0.01,0.48,-0.66,0.09,-0.24,-0.5
2022-02-17 5:46:35.9090 p.m.,0.05,0.53,-0.59,0.15,-0.31,-0.5
2022-02-17 5:46:35.9190 p.m.,0.17,0.58,-0.52,0.15,-0.31,-0.5
2022-02-17 5:46:35.9290 p.m.,0.27,0.6,-0.48,0.19,-0.38,-0.51
2022-02-17 5:46:35.9390 p.m.,0.44,0.63,-0.59,0.27,-0.44,-0.54
2022-02-17 5:46:35.9490 p.m.,0.66,0.64,-0.72,0.28,-0.41,-0.57
2022-02-17 5:46:35.9590 p.m.,0.79,0.63,-0.81,0.28,-0.31,-0.59
2022-02-17 5:46:35.9690 p.m.,0.99,0.68,-0.75,0.27,-0.22,-0.61
2022-02-17 5:46:35.9790 p.m.,1.12,0.67,-0.44,0.27,-0.16,-0.64
2022-02-17 5:46:35.9890 p.m.,1.09,0.59,-0.03,0.26,-0.1,-0.66
2022-02-17 5:46:35.9990 p.m.,1.03,0.55,0.46,0.25,-0.06,-0.65
2022-02-17 5:46:36.0100 p.m.,0.91,0.55,0.99,0.23,-0.04,-0.65
2022-02-17 5:46:36.0190 p.m.,0.79,0.51,1.54,0.19,-0.06,-0.63
2022-02-17 5:46:36.0290 p.m.,0.74,0.51,2.15,0.13,-0.13,-0.6
2022-02-17 5:46:36.0390 p.m.,0.68,0.53,2.73,0.11,-0.28,-0.57
2022-02-17 5:46:36.0500 p.m.,0.66,0.5,3.07,0.09,-0.45,-0.55
2022-02-17 5:46:36.0590 p.m.,0.79,0.46,3.17,0.06,-0.61,-0.56
2022-02-17 5:46:36.0700 p.m.,0.98,0.45,2.97,0,-0.72,-0.59
2022-02-17 5:46:36.0800 p.m.,1.12,0.47,2.45,-0.06,-0.72,-0.63
2022-02-17 5:46:36.0900 p.m.,1.1,0.51,1.82,-0.15,-0.58,-0.66
2022-02-17 5:46:36.1000 p.m.,0.9,0.5,1.36,-0.15,-0.58,-0.66
2022-02-17 5:46:36.1100 p.m.,0.71,0.39,1.21,-0.38,-0.23,-0.59
2022-02-17 5:46:36.1200 p.m.,0.56,0.29,1.4,-0.43,-0.21,-0.53
2022-02-17 5:46:36.1300 p.m.,0.44,-0.02,1.8,-0.39,-0.35,-0.52
2022-02-17 5:46:36.1400 p.m.,0.31,-0.49,2.05,-0.25,-0.62,-0.54
2022-02-17 5:46:36.1500 p.m.,0.26,-0.88,2,-0.09,-0.88,-0.59
2022-02-17 5:46:36.1600 p.m.,0.39,-1.1,1.47,0.05,-1,-0.64
2022-02-17 5:46:36.1700 p.m.,0.74,-0.99,0.67,0.15,-0.98,-0.66
2022-02-17 5:46:36.1800 p.m.,0.9,-0.77,0.03,0.18,-0.87,-0.68
2022-02-17 5:46:36.1900 p.m.,0.91,-0.68,-0.35,0.14,-0.71,-0.69
2022-02-17 5:46:36.2000 p.m.,0.95,-0.54,-0.58,0.08,-0.51,-0.68
2022-02-17 5:46:36.2100 p.m.,0.97,-0.4,-0.73,0.06,-0.33,-0.68
2022-02-17 5:46:36.2200 p.m.,0.87,-0.42,-0.71,0.05,-0.2,-0.7
2022-02-17 5:46:36.2300 p.m.,0.68,-0.55,-0.57,0.06,-0.12,-0.74
2022-02-17 5:46:36.2400 p.m.,0.51,-0.68,-0.38,0.09,-0.09,-0.78
2022-02-17 5:46:36.2510 p.m.,0.32,-0.74,-0.19,0.11,-0.07,-0.82
2022-02-17 5:46:36.2590 p.m.,0.34,-0.75,-0.19,0.16,-0.06,-0.82
2022-02-17 5:46:36.2690 p.m.,0.15,-0.72,-0.11,0.2,-0.02,-0.78
2022-02-17 5:46:36.2790 p.m.,-0.01,-0.58,-0.2,0.23,0.02,-0.7
2022-02-17 5:46:36.2890 p.m.,-0.1,-0.38,-0.34,0.24,0.05,-0.58
2022-02-17 5:46:36.2990 p.m.,-0.17,-0.19,-0.39,0.22,0.04,-0.47
2022-02-17 5:46:36.3090 p.m.,-0.17,-0.09,-0.39,0.17,-0.03,-0.37
2022-02-17 5:46:36.3190 p.m.,-0.14,-0.11,-0.38,0.08,-0.13,-0.3
2022-02-17 5:46:36.3290 p.m.,-0.11,-0.21,-0.35,-0.02,-0.26,-0.27
2022-02-17 5:46:36.3390 p.m.,0,-0.35,-0.3,-0.08,-0.37,-0.26
2022-02-17 5:46:36.3500 p.m.,0.1,-0.5,-0.39,-0.1,-0.41,-0.27
2022-02-17 5:46:36.3600 p.m.,0.16,-0.65,-0.68,-0.07,-0.39,-0.26
2022-02-17 5:46:36.3700 p.m.,0.2,-0.72,-1.07,-0.04,-0.31,-0.26
2022-02-17 5:46:36.3790 p.m.,0.29,-0.69,-1.44,0,-0.22,-0.27
2022-02-17 5:46:36.3900 p.m.,0.36,-0.67,-1.68,0.04,-0.15,-0.28
2022-02-17 5:46:36.4000 p.m.,0.37,-0.69,-1.73,0.08,-0.1,-0.28
2022-02-17 5:46:36.4100 p.m.,0.33,-0.6,-1.74,0.1,-0.08,-0.28
2022-02-17 5:46:36.4200 p.m.,0.36,-0.44,-1.7,0.11,-0.07,-0.28
2022-02-17 5:46:36.4300 p.m.,0.36,-0.28,-1.64,0.1,-0.09,-0.28
2022-02-17 5:46:36.4400 p.m.,0.36,-0.16,-1.6,0.08,-0.1,-0.27
2022-02-17 5:46:36.4500 p.m.,0.38,-0.03,-1.58,0.04,-0.11,-0.27
2022-02-17 5:46:36.4600 p.m.,0.37,0.03,-1.55,0,-0.11,-0.27
2022-02-17 5:46:36.4700 p.m.,0.37,0.09,-1.53,-0.02,-0.07,-0.26
2022-02-17 5:46:36.4800 p.m.,0.37,0.17,-1.54,-0.01,0,-0.23
2022-02-17 5:46:36.4900 p.m.,0.38,0.31,-1.56,0.01,0.07,-0.21
2022-02-17 5:46:36.5000 p.m.,0.38,0.45,-1.52,0.05,0.12,-0.2
2022-02-17 5:46:36.5100 p.m.,0.36,0.47,-1.35,0.07,0.15,-0.2
2022-02-17 5:46:36.5200 p.m.,0.34,0.45,-1.07,0.1,0.15,-0.18
2022-02-17 5:46:36.5300 p.m.,0.36,0.48,-0.77,0.13,0.15,-0.18
2022-02-17 5:46:36.5400 p.m.,0.41,0.49,-0.5,0.15,0.17,-0.17
2022-02-17 5:46:36.5500 p.m.,0.41,0.49,-0.3,0.15,0.18,-0.16
2022-02-17 5:46:36.5600 p.m.,0.43,0.45,-0.07,0.13,0.22,-0.14
2022-02-17 5:46:36.5700 p.m.,0.42,0.46,0.19,0.1,0.27,-0.09
2022-02-17 5:46:36.5800 p.m.,0.33,0.43,0.42,0.07,0.3,-0.04
2022-02-17 5:46:36.5900 p.m.,0.31,0.45,0.78,0.07,0.26,-0.01
2022-02-17 5:46:36.6010 p.m.,0.29,0.33,1.26,0.11,0.15,-0.02
2022-02-17 5:46:36.6110 p.m.,0.27,0.1,1.81,0.19,0.02,-0.03
2022-02-17 5:46:36.6210 p.m.,0.27,-0.08,2.16,0.28,-0.06,-0.04
2022-02-17 5:46:36.6310 p.m.,0.37,-0.07,2.18,0.34,-0.06,-0.05
2022-02-17 5:46:36.6410 p.m.,0.51,0.09,1.93,0.36,0,-0.04
2022-02-17 5:46:36.6510 p.m.,0.62,0.24,1.7,0.33,0.08,0
2022-02-17 5:46:36.6610 p.m.,0.55,0.31,1.54,0.25,0.17,0.05
2022-02-17 5:46:36.6710 p.m.,0.51,0.48,1.46,0.13,0.25,0.11
2022-02-17 5:46:36.6810 p.m.,0.51,0.64,1.47,-0.02,0.34,0.16
2022-02-17 5:46:36.6910 p.m.,0.38,0.68,1.51,-0.21,0.43,0.2
2022-02-17 5:46:36.7010 p.m.,0.17,0.64,1.51,-0.4,0.52,0.25
2022-02-17 5:46:36.7110 p.m.,-0.05,0.56,1.55,-0.59,0.52,0.3
2022-02-17 5:46:36.7210 p.m.,-0.25,0.43,1.71,-0.71,0.44,0.35
2022-02-17 5:46:36.7310 p.m.,-0.5,0.24,2.03,-0.75,0.27,0.38
2022-02-17 5:46:36.7410 p.m.,-0.77,0,2.31,-0.67,0.03,0.38
2022-02-17 5:46:36.7510 p.m.,-0.92,-0.33,2.35,-0.47,-0.22,0.34
2022-02-17 5:46:36.7610 p.m.,-1,-0.71,2.15,-0.21,-0.4,0.29
2022-02-17 5:46:36.7710 p.m.,-1.01,-0.96,1.61,0.04,-0.44,0.24
2022-02-17 5:46:36.7810 p.m.,-0.84,-1.06,0.81,0.25,-0.38,0.2
2022-02-17 5:46:36.7910 p.m.,-0.56,-0.99,-0.07,0.39,-0.23,0.18
2022-02-17 5:46:36.8010 p.m.,-0.29,-0.85,-0.84,0.42,-0.04,0.17
2022-02-17 5:46:36.8110 p.m.,-0.07,-0.66,-1.33,0.39,0.13,0.16
2022-02-17 5:46:36.8210 p.m.,0.13,-0.39,-1.5,0.3,0.24,0.14
2022-02-17 5:46:36.8310 p.m.,0.19,-0.25,-1.41,0.19,0.26,0.1
2022-02-17 5:46:36.8420 p.m.,0.1,-0.21,-1.11,0.08,0.23,0.07
2022-02-17 5:46:36.8520 p.m.,-0.11,-0.2,-0.75,-0.01,0.17,0.08
2022-02-17 5:46:36.8620 p.m.,-0.32,-0.1,-0.42,-0.07,0.12,0.12
2022-02-17 5:46:36.8720 p.m.,-0.44,0.11,-0.27,-0.12,0.1,0.19
2022-02-17 5:46:36.8820 p.m.,-0.52,0.23,-0.23,-0.15,0.1,0.27
2022-02-17 5:46:36.8920 p.m.,-0.55,0.25,-0.22,-0.16,0.1,0.34
2022-02-17 5:46:36.9020 p.m.,-0.55,0.23,-0.23,-0.16,0.08,0.36
2022-02-17 5:46:36.9120 p.m.,-0.48,0.08,-0.21,-0.17,0.04,0.34
2022-02-17 5:46:36.9220 p.m.,-0.42,-0.2,-0.16,-0.17,-0.02,0.29
2022-02-17 5:46:36.9320 p.m.,-0.37,-0.4,-0.15,-0.15,-0.08,0.25
2022-02-17 5:46:36.9420 p.m.,-0.25,-0.46,-0.2,-0.09,-0.14,0.21
2022-02-17 5:46:36.9530 p.m.,-0.12,-0.43,-0.65,-0.01,-0.16,0.17
2022-02-17 5:46:36.9630 p.m.,-0.05,-0.36,-0.91,0.06,-0.16,0.13
2022-02-17 5:46:36.9740 p.m.,-0.01,-0.31,-1.17,0.12,-0.12,0.09
2022-02-17 5:46:36.9830 p.m.,0.02,-0.27,-1.43,0.13,-0.05,0.06
2022-02-17 5:46:36.9940 p.m.,0.02,-0.14,-1.53,0.1,-0.01,0.04
2022-02-17 5:46:37.0040 p.m.,-0.06,-0.02,-1.53,0.06,0.01,0.02
2022-02-17 5:46:37.0140 p.m.,-0.16,0.11,-1.5,0.01,-0.01,0.02
2022-02-17 5:46:37.0240 p.m.,-0.22,0.25,-1.45,-0.03,-0.05,0.02
2022-02-17 5:46:37.0340 p.m.,-0.32,0.28,-1.39,-0.06,-0.11,0.01
2022-02-17 5:46:37.0440 p.m.,-0.42,0.32,-1.36,-0.06,-0.16,-0.01
2022-02-17 5:46:37.0540 p.m.,-0.45,0.4,-1.41,-0.06,-0.19,0
2022-02-17 5:46:37.0640 p.m.,-0.45,0.52,-1.51,-0.06,-0.18,0.02
2022-02-17 5:46:37.0740 p.m.,-0.45,0.63,-1.61,-0.06,-0.15,0.04
2022-02-17 5:46:37.0840 p.m.,-0.4,0.71,-1.65,-0.05,-0.1,0.05
2022-02-17 5:46:37.0940 p.m.,-0.32,0.73,-1.62,-0.07,-0.07,0.04
2022-02-17 5:46:37.1040 p.m.,-0.25,0.69,-1.45,-0.11,-0.09,0.01
2022-02-17 5:46:37.1140 p.m.,-0.2,0.67,-1.2,-0.15,-0.13,-0.03
2022-02-17 5:46:37.1240 p.m.,-0.15,0.69,-0.98,-0.17,-0.17,-0.07
2022-02-17 5:46:37.1340 p.m.,-0.04,0.78,-0.82,-0.18,-0.21,-0.12
2022-02-17 5:46:37.1440 p.m.,0.03,0.85,-0.57,-0.18,-0.21,-0.12
2022-02-17 5:46:37.1540 p.m.,0.04,0.83,-0.18,-0.17,-0.28,-0.22
2022-02-17 5:46:37.1640 p.m.,0.04,0.86,0.13,-0.16,-0.29,-0.27
2022-02-17 5:46:37.1740 p.m.,0.1,0.87,0.41,-0.12,-0.25,-0.31
2022-02-17 5:46:37.1840 p.m.,0.13,0.85,0.63,-0.06,-0.16,-0.36
2022-02-17 5:46:37.1940 p.m.,0.19,0.89,0.83,-0.06,-0.16,-0.36
2022-02-17 5:46:37.2040 p.m.,0.24,0.9,1.07,0.14,0.14,-0.41
2022-02-17 5:46:37.2150 p.m.,0.24,0.84,1.41,0.27,0.24,-0.43
2022-02-17 5:46:37.2250 p.m.,0.17,0.81,1.91,0.27,0.24,-0.43
2022-02-17 5:46:37.2350 p.m.,0.09,0.86,2.51,0.46,0.16,-0.44
2022-02-17 5:46:37.2450 p.m.,0.07,0.96,3.01,0.46,0.02,-0.41
2022-02-17 5:46:37.2550 p.m.,0.1,1.01,3.24,0.39,-0.11,-0.36
2022-02-17 5:46:37.2650 p.m.,0.27,1.03,3.26,0.24,-0.23,-0.31
2022-02-17 5:46:37.2750 p.m.,0.5,1.02,3.21,0.05,-0.33,-0.29
2022-02-17 5:46:37.2850 p.m.,0.65,0.96,3.08,0.05,-0.33,-0.29
2022-02-17 5:46:37.2950 p.m.,0.61,0.77,2.8,-0.22,-0.47,-0.32
2022-02-17 5:46:37.3050 p.m.,0.46,0.53,2.33,-0.26,-0.42,-0.33
2022-02-17 5:46:37.3150 p.m.,0.3,0.31,1.8,-0.26,-0.42,-0.33
2022-02-17 5:46:37.3250 p.m.,0.18,0.07,1.48,-0.27,-0.17,-0.32
2022-02-17 5:46:37.3350 p.m.,0.06,-0.26,1.47,-0.2,-0.14,-0.33
2022-02-17 5:46:37.3460 p.m.,-0.11,-0.69,1.54,-0.06,-0.19,-0.37
2022-02-17 5:46:37.3550 p.m.,-0.21,-1.09,1.48,0.11,-0.3,-0.43
2022-02-17 5:46:37.3650 p.m.,-0.17,-1.32,1.24,0.29,-0.43,-0.5
2022-02-17 5:46:37.3750 p.m.,-0.07,-1.35,0.77,0.42,-0.5,-0.55
2022-02-17 5:46:37.3850 p.m.,0.16,-1.2,0.16,0.48,-0.49,-0.57
2022-02-17 5:46:37.3950 p.m.,0.32,-0.97,-0.39,0.48,-0.49,-0.57
2022-02-17 5:46:37.4050 p.m.,0.48,-0.77,-0.82,0.42,-0.28,-0.55
2022-02-17 5:46:37.4150 p.m.,0.67,-0.59,-1.05,0.32,-0.13,-0.55
2022-02-17 5:46:37.4260 p.m.,0.78,-0.55,-1.11,0.22,-0.03,-0.56
2022-02-17 5:46:37.4350 p.m.,0.77,-0.64,-0.96,0.14,-0.01,-0.59
2022-02-17 5:46:37.4450 p.m.,0.66,-0.71,-0.75,0.1,0,-0.6
2022-02-17 5:46:37.4560 p.m.,0.55,-0.65,-0.64,0.09,0,-0.59
2022-02-17 5:46:37.4660 p.m.,0.45,-0.51,-0.66,0.09,0.03,-0.54
2022-02-17 5:46:37.4760 p.m.,0.38,-0.4,-0.68,0.09,0.03,-0.54
2022-02-17 5:46:37.4860 p.m.,0.24,-0.36,-0.64,0.11,0.09,-0.39
2022-02-17 5:46:37.4960 p.m.,0.15,-0.35,-0.56,0.08,0.11,-0.31
2022-02-17 5:46:37.5060 p.m.,0.15,-0.36,-0.42,0.03,0.09,-0.25
2022-02-17 5:46:37.5160 p.m.,0.06,-0.48,-0.25,-0.04,0.03,-0.2
2022-02-17 5:46:37.5260 p.m.,-0.02,-0.61,-0.14,-0.13,-0.05,-0.16
2022-02-17 5:46:37.5360 p.m.,-0.02,-0.65,-0.08,-0.19,-0.15,-0.12
2022-02-17 5:46:37.5460 p.m.,0,-0.68,-0.2,-0.21,-0.23,-0.1
2022-02-17 5:46:37.5560 p.m.,0.02,-0.77,-0.45,-0.2,-0.27,-0.08
2022-02-17 5:46:37.5660 p.m.,0.06,-0.84,-0.76,-0.17,-0.27,-0.08
2022-02-17 5:46:37.5760 p.m.,0.11,-0.85,-1.08,-0.12,-0.23,-0.09
2022-02-17 5:46:37.5860 p.m.,0.13,-0.87,-1.29,-0.07,-0.19,-0.11
2022-02-17 5:46:37.5960 p.m.,0.15,-0.8,-1.47,-0.02,-0.15,-0.11
2022-02-17 5:46:37.6060 p.m.,0.17,-0.67,-1.6,0.01,-0.12,-0.1
2022-02-17 5:46:37.6160 p.m.,0.18,-0.53,-1.65,0.02,-0.11,-0.09
2022-02-17 5:46:37.6260 p.m.,0.13,-0.44,-1.7,0.02,-0.1,-0.08
2022-02-17 5:46:37.6370 p.m.,0.13,-0.32,-1.73,0.02,-0.1,-0.08
2022-02-17 5:46:37.6460 p.m.,0.14,-0.2,-1.79,0.01,-0.12,-0.09
2022-02-17 5:46:37.6560 p.m.,0.11,-0.09,-1.83,0,-0.12,-0.1
2022-02-17 5:46:37.6660 p.m.,0.15,0.06,-1.85,0,-0.12,-0.1
2022-02-17 5:46:37.6770 p.m.,0.2,0.24,-1.8,-0.05,-0.1,-0.07
2022-02-17 5:46:37.6860 p.m.,0.18,0.35,-1.71,-0.1,-0.07,-0.04
2022-02-17 5:46:37.6970 p.m.,0.19,0.42,-1.53,-0.13,-0.04,-0.01
2022-02-17 5:46:37.7070 p.m.,0.18,0.39,-1.32,-0.13,-0.02,0
2022-02-17 5:46:37.7170 p.m.,0.24,0.33,-1.1,-0.11,0,0
2022-02-17 5:46:37.7270 p.m.,0.33,0.33,-0.88,-0.08,0.03,0
2022-02-17 5:46:37.7370 p.m.,0.45,0.36,-0.62,-0.06,0.05,-0.01
2022-02-17 5:46:37.7470 p.m.,0.49,0.35,-0.4,-0.05,0.11,-0.01
2022-02-17 5:46:37.7570 p.m.,0.51,0.38,-0.2,-0.06,0.19,0
2022-02-17 5:46:37.7670 p.m.,0.52,0.41,0.06,-0.09,0.27,0.02
2022-02-17 5:46:37.7770 p.m.,0.44,0.39,0.42,-0.11,0.34,0.04
2022-02-17 5:46:37.7870 p.m.,0.38,0.29,0.94,-0.08,0.35,0.06
2022-02-17 5:46:37.7970 p.m.,0.3,0.15,1.49,-0.02,0.27,0.07
2022-02-17 5:46:37.8070 p.m.,0.25,0.06,1.96,0.09,0.13,0.08
2022-02-17 5:46:37.8170 p.m.,0.26,0.03,2.17,0.18,0,0.08
2022-02-17 5:46:37.8270 p.m.,0.39,0.06,2.05,0.25,-0.05,0.07
2022-02-17 5:46:37.8370 p.m.,0.6,0.2,1.77,0.29,-0.05,0.06
2022-02-17 5:46:37.8470 p.m.,0.62,0.37,1.48,0.3,0.01,0.08
2022-02-17 5:46:37.8570 p.m.,0.58,0.52,1.2,0.25,0.12,0.11
2022-02-17 5:46:37.8670 p.m.,0.51,0.59,1.1,0.16,0.21,0.14
2022-02-17 5:46:37.8770 p.m.,0.39,0.6,1.16,0.05,0.27,0.17
2022-02-17 5:46:37.8870 p.m.,0.22,0.62,1.32,-0.06,0.29,0.2
2022-02-17 5:46:37.8970 p.m.,0.08,0.7,1.51,-0.17,0.29,0.24
2022-02-17 5:46:37.9070 p.m.,-0.11,0.72,1.61,-0.29,0.29,0.3
2022-02-17 5:46:37.9180 p.m.,-0.31,0.66,1.66,-0.41,0.3,0.38
2022-02-17 5:46:37.9280 p.m.,-0.4,0.61,1.71,-0.54,0.32,0.47
2022-02-17 5:46:37.9380 p.m.,-0.46,0.46,1.78,-0.62,0.28,0.53
2022-02-17 5:46:37.9480 p.m.,-0.58,0.18,1.93,-0.63,0.15,0.56
2022-02-17 5:46:37.9580 p.m.,-0.66,-0.22,2.01,-0.55,-0.03,0.54
2022-02-17 5:46:37.9680 p.m.,-0.61,-0.55,1.86,-0.4,-0.2,0.48
2022-02-17 5:46:37.9780 p.m.,-0.52,-0.77,1.45,-0.17,-0.32,0.41
2022-02-17 5:46:37.9880 p.m.,-0.41,-0.87,0.85,0.1,-0.34,0.33
2022-02-17 5:46:37.9980 p.m.,-0.26,-0.84,0.1,0.32,-0.24,0.26
2022-02-17 5:46:38.0080 p.m.,-0.07,-0.63,-0.59,0.46,-0.06,0.23
2022-02-17 5:46:38.0180 p.m.,0.12,-0.29,-0.94,0.51,0.14,0.22
2022-02-17 5:46:38.0280 p.m.,0.26,0,-1.02,0.51,0.14,0.22
2022-02-17 5:46:38.0380 p.m.,0.24,0.14,-0.84,0.35,0.39,0.21
2022-02-17 5:46:38.0480 p.m.,0.12,0.19,-0.46,0.19,0.38,0.2
2022-02-17 5:46:38.0580 p.m.,-0.09,0.21,-0.08,0.03,0.31,0.22
2022-02-17 5:46:38.0680 p.m.,-0.27,0.22,0.21,-0.11,0.22,0.26
2022-02-17 5:46:38.0780 p.m.,-0.39,0.21,0.32,-0.11,0.22,0.26
2022-02-17 5:46:38.0880 p.m.,-0.46,0.12,0.34,-0.25,0.06,0.34
2022-02-17 5:46:38.0980 p.m.,-0.5,-0.06,0.26,-0.25,0.01,0.37
2022-02-17 5:46:38.1080 p.m.,-0.43,-0.23,0.08,-0.2,-0.02,0.39
2022-02-17 5:46:38.1180 p.m.,-0.32,-0.38,-0.15,-0.14,-0.04,0.38
2022-02-17 5:46:38.1280 p.m.,-0.19,-0.52,-0.38,-0.08,-0.07,0.35
2022-02-17 5:46:38.1380 p.m.,-0.08,-0.63,-0.6,-0.03,-0.11,0.31
2022-02-17 5:46:38.1480 p.m.,0.03,-0.68,-0.79,-0.01,-0.16,0.26
2022-02-17 5:46:38.1590 p.m.,0.11,-0.63,-0.94,-0.03,-0.2,0.23
2022-02-17 5:46:38.1690 p.m.,0.21,-0.53,-1.01,-0.05,-0.25,0.2
2022-02-17 5:46:38.1790 p.m.,0.22,-0.48,-1.13,-0.04,-0.28,0.17
2022-02-17 5:46:38.1890 p.m.,0.18,-0.45,-1.37,-0.01,-0.26,0.14
2022-02-17 5:46:38.1990 p.m.,0.21,-0.39,-1.58,-0.01,-0.26,0.14
2022-02-17 5:46:38.2090 p.m.,0.21,-0.33,-1.75,0.08,-0.16,0.04
2022-02-17 5:46:38.2190 p.m.,0.18,-0.27,-1.89,0.11,-0.09,-0.01
2022-02-17 5:46:38.2290 p.m.,0.16,-0.11,-2.02,0.1,-0.02,-0.03
2022-02-17 5:46:38.2390 p.m.,0.17,0.13,-2.05,0.07,0.02,-0.05
2022-02-17 5:46:38.2490 p.m.,0.09,0.3,-1.97,0.02,0.02,-0.06
2022-02-17 5:46:38.2590 p.m.,0.01,0.38,-1.86,-0.04,-0.01,-0.06
2022-02-17 5:46:38.2690 p.m.,-0.02,0.52,-1.69,-0.04,-0.01,-0.06
2022-02-17 5:46:38.2790 p.m.,-0.07,0.64,-1.54,-0.1,-0.06,-0.04
2022-02-17 5:46:38.2890 p.m.,-0.15,0.65,-1.38,-0.18,-0.17,-0.01
2022-02-17 5:46:38.2990 p.m.,-0.1,0.69,-1.23,-0.18,-0.17,-0.01
2022-02-17 5:46:38.3090 p.m.,-0.06,0.66,-1.08,-0.19,-0.26,-0.05
2022-02-17 5:46:38.3190 p.m.,-0.04,0.61,-0.97,-0.16,-0.28,-0.09
2022-02-17 5:46:38.3290 p.m.,0.07,0.61,-0.89,-0.11,-0.29,-0.14
2022-02-17 5:46:38.3390 p.m.,0.15,0.66,-0.77,-0.06,-0.31,-0.18
2022-02-17 5:46:38.3500 p.m.,0.24,0.69,-0.6,-0.01,-0.3,-0.23
2022-02-17 5:46:38.3590 p.m.,0.33,0.7,-0.48,0.06,-0.26,-0.29
2022-02-17 5:46:38.3690 p.m.,0.39,0.68,-0.4,0.06,-0.26,-0.29
2022-02-17 5:46:38.3790 p.m.,0.45,0.71,-0.21,0.21,-0.07,-0.36
2022-02-17 5:46:38.3890 p.m.,0.47,0.76,0.08,0.3,0.04,-0.4
2022-02-17 5:46:38.4000 p.m.,0.38,0.66,0.43,0.35,0.16,-0.43
2022-02-17 5:46:38.4100 p.m.,0.34,0.64,0.9,0.39,0.22,-0.44
2022-02-17 5:46:38.4200 p.m.,0.21,0.7,1.48,0.39,0.22,-0.44
2022-02-17 5:46:38.4300 p.m.,0.04,0.72,2.13,0.29,0.14,-0.37
2022-02-17 5:46:38.4400 p.m.,-0.09,0.88,2.69,0.21,-0.01,-0.32
2022-02-17 5:46:38.4500 p.m.,-0.04,0.97,3.09,0.09,-0.2,-0.27
2022-02-17 5:46:38.4600 p.m.,0.13,0.95,3.23,-0.03,-0.36,-0.22
2022-02-17 5:46:38.4700 p.m.,0.42,0.95,3.02,-0.17,-0.48,-0.19
2022-02-17 5:46:38.4800 p.m.,0.64,0.95,2.71,-0.32,-0.52,-0.18
2022-02-17 5:46:38.4900 p.m.,0.75,0.9,2.36,-0.47,-0.49,-0.16
2022-02-17 5:46:38.5000 p.m.,0.77,0.76,2.01,-0.59,-0.4,-0.15
2022-02-17 5:46:38.5100 p.m.,0.68,0.51,1.73,-0.69,-0.27,-0.15
2022-02-17 5:46:38.5200 p.m.,0.51,0.25,1.61,-0.73,-0.17,-0.14
2022-02-17 5:46:38.5300 p.m.,0.36,-0.03,1.74,-0.69,-0.17,-0.16
2022-02-17 5:46:38.5400 p.m.,0.13,-0.44,1.95,-0.56,-0.26,-0.21
2022-02-17 5:46:38.5500 p.m.,-0.07,-0.86,2.01,-0.38,-0.4,-0.28
2022-02-17 5:46:38.5600 p.m.,-0.17,-1.16,1.81,-0.2,-0.53,-0.36
2022-02-17 5:46:38.5700 p.m.,-0.07,-1.25,1.39,-0.03,-0.6,-0.43
2022-02-17 5:46:38.5810 p.m.,0.12,-1.16,0.78,0.1,-0.58,-0.49
2022-02-17 5:46:38.5900 p.m.,0.29,-1.01,0.15,0.21,-0.48,-0.53
2022-02-17 5:46:38.6000 p.m.,0.42,-0.83,-0.38,0.26,-0.33,-0.55
2022-02-17 5:46:38.6100 p.m.,0.59,-0.65,-0.64,0.25,-0.18,-0.57
2022-02-17 5:46:38.6210 p.m.,0.65,-0.57,-0.63,0.2,-0.09,-0.6
2022-02-17 5:46:38.6310 p.m.,0.61,-0.59,-0.49,0.15,-0.06,-0.64
2022-02-17 5:46:38.6410 p.m.,0.52,-0.57,-0.38,0.11,-0.06,-0.67
2022-02-17 5:46:38.6510 p.m.,0.41,-0.5,-0.36,0.09,-0.04,-0.68
2022-02-17 5:46:38.6610 p.m.,0.3,-0.39,-0.42,0.09,-0.01,-0.66
2022-02-17 5:46:38.6710 p.m.,0.18,-0.29,-0.47,0.12,0.04,-0.62
2022-02-17 5:46:38.6810 p.m.,0.03,-0.26,-0.52,0.16,0.1,-0.56
2022-02-17 5:46:38.6910 p.m.,-0.02,-0.17,-0.52,0.18,0.16,-0.49
2022-02-17 5:46:38.7010 p.m.,-0.05,-0.15,-0.49,0.19,0.19,-0.42
2022-02-17 5:46:38.7110 p.m.,-0.12,-0.25,-0.42,0.16,0.18,-0.36
2022-02-17 5:46:38.7210 p.m.,-0.17,-0.35,-0.3,0.09,0.12,-0.31
2022-02-17 5:46:38.7310 p.m.,-0.17,-0.47,-0.17,0.01,0.04,-0.27
2022-02-17 5:46:38.7410 p.m.,-0.16,-0.6,-0.14,-0.06,-0.06,-0.23
2022-02-17 5:46:38.7510 p.m.,-0.13,-0.71,-0.24,-0.09,-0.15,-0.2
2022-02-17 5:46:38.7610 p.m.,-0.08,-0.81,-0.45,-0.1,-0.19,-0.18
2022-02-17 5:46:38.7710 p.m.,0.01,-0.9,-0.78,-0.07,-0.17,-0.17
2022-02-17 5:46:38.7810 p.m.,0.12,-0.95,-1.08,-0.02,-0.13,-0.16
2022-02-17 5:46:38.7910 p.m.,0.17,-1.01,-1.29,0.03,-0.09,-0.16
2022-02-17 5:46:38.8010 p.m.,0.21,-1.02,-1.45,0.07,-0.04,-0.16
2022-02-17 5:46:38.8110 p.m.,0.31,-0.96,-1.51,0.07,-0.01,-0.18
2022-02-17 5:46:38.8210 p.m.,0.34,-0.9,-1.53,0.06,0.01,-0.19
2022-02-17 5:46:38.8310 p.m.,0.33,-0.81,-1.5,0.02,0.02,-0.2
2022-02-17 5:46:38.8410 p.m.,0.27,-0.67,-1.42,-0.01,0,-0.2
2022-02-17 5:46:38.8510 p.m.,0.17,-0.51,-1.4,-0.03,-0.01,-0.17
2022-02-17 5:46:38.8610 p.m.,0.1,-0.33,-1.34,-0.03,-0.03,-0.14
2022-02-17 5:46:38.8710 p.m.,0.07,-0.17,-1.34,0,-0.03,-0.11
2022-02-17 5:46:38.8820 p.m.,0.01,-0.12,-1.43,0.03,-0.01,-0.07
2022-02-17 5:46:38.8920 p.m.,0.05,-0.03,-1.5,0.03,-0.01,-0.07
2022-02-17 5:46:38.9020 p.m.,0.05,-0.01,-1.45,0.04,0.07,-0.02
2022-02-17 5:46:38.9120 p.m.,0.05,0.04,-1.4,0.02,0.12,0.02
2022-02-17 5:46:38.9220 p.m.,0.13,0.16,-1.22,0,0.15,0.05
2022-02-17 5:46:38.9320 p.m.,0.16,0.23,-1.02,0,0.15,0.05
2022-02-17 5:46:38.9420 p.m.,0.26,0.33,-0.79,0.01,0.17,0.11
2022-02-17 5:46:38.9520 p.m.,0.35,0.37,-0.54,0.01,0.2,0.12
2022-02-17 5:46:38.9620 p.m.,0.4,0.31,-0.24,0,0.25,0.12
2022-02-17 5:46:38.9720 p.m.,0.36,0.19,0.12,0.01,0.32,0.12
2022-02-17 5:46:38.9820 p.m.,0.31,0.07,0.59,0.03,0.39,0.12
2022-02-17 5:46:38.9920 p.m.,0.21,-0.02,1.06,0.09,0.4,0.12
2022-02-17 5:46:39.0020 p.m.,0.1,-0.05,1.51,0.14,0.37,0.13
2022-02-17 5:46:39.0120 p.m.,0.08,0.01,1.92,0.17,0.3,0.16
2022-02-17 5:46:39.0220 p.m.,0.14,0.11,2.25,0.18,0.2,0.2
2022-02-17 5:46:39.0320 p.m.,0.21,0.25,2.41,0.18,0.1,0.22
2022-02-17 5:46:39.0420 p.m.,0.29,0.37,2.33,0.17,0.04,0.25
2022-02-17 5:46:39.0520 p.m.,0.34,0.42,2.14,0.12,0.03,0.28
2022-02-17 5:46:39.0620 p.m.,0.33,0.54,1.91,0.06,0.04,0.32
2022-02-17 5:46:39.0720 p.m.,0.33,0.8,1.75,-0.04,0.06,0.38
2022-02-17 5:46:39.0820 p.m.,0.24,0.98,1.77,-0.22,0.09,0.45
2022-02-17 5:46:39.0920 p.m.,0.11,1.04,1.81,-0.45,0.17,0.52
2022-02-17 5:46:39.1030 p.m.,-0.03,0.96,1.82,-0.72,0.28,0.59
2022-02-17 5:46:39.1130 p.m.,-0.17,0.74,1.87,-0.72,0.28,0.59
2022-02-17 5:46:39.1230 p.m.,-0.32,0.38,2.07,-1.12,0.39,0.62
2022-02-17 5:46:39.1330 p.m.,-0.58,-0.05,2.35,-1.14,0.32,0.58
2022-02-17 5:46:39.1430 p.m.,-0.87,-0.52,2.49,-0.99,0.17,0.52
2022-02-17 5:46:39.1530 p.m.,-1.08,-0.88,2.4,-0.7,-0.01,0.45
2022-02-17 5:46:39.1630 p.m.,-1.2,-1.09,1.94,-0.34,-0.15,0.39
2022-02-17 5:46:39.1730 p.m.,-1.11,-1.18,1.2,0,-0.19,0.35
2022-02-17 5:46:39.1830 p.m.,-0.9,-1.13,0.46,0.29,-0.19,0.3
2022-02-17 5:46:39.1930 p.m.,-0.73,-1.12,-0.2,0.51,-0.13,0.25
2022-02-17 5:46:39.2030 p.m.,-0.54,-1.11,-0.72,0.62,-0.05,0.21
2022-02-17 5:46:39.2130 p.m.,-0.31,-0.95,-1.02,0.67,0.02,0.15
2022-02-17 5:46:39.2230 p.m.,-0.34,-0.84,-1.22,0.65,0.11,0.11
2022-02-17 5:46:39.2330 p.m.,-0.29,-0.61,-1.33,0.58,0.18,0.09
2022-02-17 5:46:39.2430 p.m.,-0.32,-0.36,-1.28,0.51,0.23,0.08
2022-02-17 5:46:39.2530 p.m.,-0.52,-0.22,-1.15,0.42,0.26,0.11
2022-02-17 5:46:39.2630 p.m.,-0.72,0,-1.03,0.33,0.3,0.2
2022-02-17 5:46:39.2730 p.m.,-0.87,0.3,-0.92,0.21,0.35,0.34
2022-02-17 5:46:39.2830 p.m.,-1.01,0.46,-0.7,0.07,0.38,0.49
2022-02-17 5:46:39.2930 p.m.,-1.15,0.43,-0.42,-0.08,0.37,0.62
2022-02-17 5:46:39.3030 p.m.,-1.22,0.17,-0.11,-0.23,0.3,0.7
2022-02-17 5:46:39.3130 p.m.,-1.22,-0.14,0.16,-0.37,0.17,0.75
2022-02-17 5:46:39.3240 p.m.,-1.14,-0.44,0.41,-0.45,0,0.75
2022-02-17 5:46:39.3330 p.m.,-1.07,-0.72,0.39,-0.44,-0.15,0.72
2022-02-17 5:46:39.3440 p.m.,-0.95,-0.89,0.15,-0.37,-0.26,0.66
2022-02-17 5:46:39.3540 p.m.,-0.76,-0.94,-0.26,-0.25,-0.27,0.6
2022-02-17 5:46:39.3640 p.m.,-0.57,-0.89,-0.76,-0.13,-0.21,0.53
2022-02-17 5:46:39.3740 p.m.,-0.4,-0.76,-1.18,-0.03,-0.1,0.46
2022-02-17 5:46:39.3840 p.m.,-0.3,-0.63,-1.49,0.04,0.03,0.38
2022-02-17 5:46:39.3940 p.m.,-0.27,-0.5,-1.66,0.07,0.14,0.31
2022-02-17 5:46:39.4040 p.m.,-0.31,-0.32,-1.63,0.08,0.21,0.24
2022-02-17 5:46:39.4140 p.m.,-0.42,-0.09,-1.49,0.07,0.23,0.2
2022-02-17 5:46:39.4240 p.m.,-0.55,0.2,-1.37,0.06,0.21,0.18
2022-02-17 5:46:39.4340 p.m.,-0.64,0.44,-1.26,0.04,0.18,0.18
2022-02-17 5:46:39.4440 p.m.,-0.72,0.55,-1.17,0.02,0.13,0.17
2022-02-17 5:46:39.4540 p.m.,-0.83,0.61,-1.14,0,0.09,0.18
2022-02-17 5:46:39.4640 p.m.,-0.81,0.75,-1.12,0,0.07,0.19
2022-02-17 5:46:39.4740 p.m.,-0.84,0.89,-1.22,0.01,0.07,0.2
2022-02-17 5:46:39.4840 p.m.,-0.82,1,-1.24,0.01,0.07,0.22
2022-02-17 5:46:39.4940 p.m.,-0.78,1.11,-1.22,0,0.08,0.24
2022-02-17 5:46:39.5040 p.m.,-0.73,1.2,-1.18,-0.01,0.08,0.25
2022-02-17 5:46:39.5140 p.m.,-0.64,1.27,-1.1,-0.01,0.05,0.24
2022-02-17 5:46:39.5240 p.m.,-0.6,1.22,-0.96,-0.02,0.02,0.22
2022-02-17 5:46:39.5340 p.m.,-0.51,1.24,-0.79,-0.01,-0.02,0.19
2022-02-17 5:46:39.5440 p.m.,-0.43,1.29,-0.71,0.01,-0.06,0.16
2022-02-17 5:46:39.5540 p.m.,-0.35,1.34,-0.65,0.01,-0.06,0.16
2022-02-17 5:46:39.5650 p.m.,-0.17,1.43,-0.61,0.04,-0.08,0.15
2022-02-17 5:46:39.5750 p.m.,-0.02,1.46,-0.57,0.05,-0.08,0.14
2022-02-17 5:46:39.5850 p.m.,0.09,1.38,-0.47,0.04,-0.05,0.12
2022-02-17 5:46:39.5950 p.m.,0.28,1.26,-0.28,0.03,-0.01,0.09
2022-02-17 5:46:39.6050 p.m.,0.38,1.03,-0.05,0.06,0.04,0.02
2022-02-17 5:46:39.6150 p.m.,0.45,0.76,0.21,0.12,0.08,-0.06
2022-02-17 5:46:39.6250 p.m.,0.54,0.62,0.58,0.19,0.11,-0.14
2022-02-17 5:46:39.6350 p.m.,0.51,0.51,0.98,0.27,0.13,-0.23
2022-02-17 5:46:39.6450 p.m.,0.41,0.4,1.33,0.33,0.14,-0.28
2022-02-17 5:46:39.6550 p.m.,0.33,0.4,1.72,0.35,0.13,-0.33
2022-02-17 5:46:39.6650 p.m.,0.26,0.49,2.09,0.39,0.06,-0.35
2022-02-17 5:46:39.6750 p.m.,0.24,0.7,2.37,0.41,-0.05,-0.37
2022-02-17 5:46:39.6850 p.m.,0.28,0.96,2.5,0.42,-0.18,-0.36
2022-02-17 5:46:39.6950 p.m.,0.4,1.23,2.43,0.39,-0.25,-0.34
2022-02-17 5:46:39.7050 p.m.,0.62,1.41,2.12,0.27,-0.25,-0.3
2022-02-17 5:46:39.7150 p.m.,0.82,1.57,1.88,0.08,-0.2,-0.25
2022-02-17 5:46:39.7250 p.m.,0.95,1.67,1.8,-0.14,-0.14,-0.2
2022-02-17 5:46:39.7350 p.m.,0.97,1.51,1.74,-0.35,-0.05,-0.17
2022-02-17 5:46:39.7450 p.m.,0.76,1.1,1.68,-0.5,0.03,-0.16
2022-02-17 5:46:39.7550 p.m.,0.47,0.65,1.84,-0.6,0.07,-0.15
2022-02-17 5:46:39.7650 p.m.,0.18,0.11,2.21,-0.63,0.03,-0.15
2022-02-17 5:46:39.7760 p.m.,-0.15,-0.52,2.6,-0.54,-0.11,-0.19
2022-02-17 5:46:39.7850 p.m.,-0.4,-1.13,2.78,-0.33,-0.37,-0.26
2022-02-17 5:46:39.7950 p.m.,-0.58,-1.62,2.55,-0.04,-0.64,-0.35
2022-02-17 5:46:39.8060 p.m.,-0.47,-1.8,1.86,0.2,-0.79,-0.42
2022-02-17 5:46:39.8150 p.m.,-0.13,-1.63,0.91,0.36,-0.84,-0.47
2022-02-17 5:46:39.8260 p.m.,0.13,-1.45,0.03,0.36,-0.84,-0.47
2022-02-17 5:46:39.8360 p.m.,0.35,-1.31,-0.73,0.47,-0.64,-0.56
2022-02-17 5:46:39.8460 p.m.,0.63,-1.06,-1.27,0.42,-0.48,-0.59
2022-02-17 5:46:39.8560 p.m.,0.84,-0.9,-1.49,0.35,-0.35,-0.64
2022-02-17 5:46:39.8660 p.m.,0.9,-0.88,-1.46,0.27,-0.27,-0.7
2022-02-17 5:46:39.8760 p.m.,0.86,-0.88,-1.38,0.2,-0.2,-0.77
2022-02-17 5:46:39.8860 p.m.,0.82,-0.8,-1.35,0.17,-0.13,-0.81
2022-02-17 5:46:39.8960 p.m.,0.79,-0.68,-1.29,0.17,-0.05,-0.81
2022-02-17 5:46:39.9060 p.m.,0.67,-0.57,-1.27,0.2,0.06,-0.78
2022-02-17 5:46:39.9160 p.m.,0.56,-0.41,-1.29,0.23,0.2,-0.72
2022-02-17 5:46:39.9260 p.m.,0.47,-0.3,-1.24,0.26,0.32,-0.65
2022-02-17 5:46:39.9360 p.m.,0.36,-0.32,-0.98,0.26,0.32,-0.65
2022-02-17 5:46:39.9460 p.m.,0.24,-0.39,-0.59,0.19,0.37,-0.53
2022-02-17 5:46:39.9560 p.m.,0.09,-0.47,-0.23,0.12,0.31,-0.48
2022-02-17 5:46:39.9660 p.m.,-0.03,-0.55,0.03,0.04,0.23,-0.43
2022-02-17 5:46:39.9760 p.m.,-0.1,-0.57,0.12,-0.02,0.14,-0.35
2022-02-17 5:46:39.9870 p.m.,-0.15,-0.6,0.16,-0.08,0.05,-0.28
2022-02-17 5:46:39.9960 p.m.,-0.19,-0.64,0.18,-0.1,-0.05,-0.2
2022-02-17 5:46:40.0060 p.m.,-0.23,-0.7,0.13,-0.12,-0.14,-0.14
2022-02-17 5:46:40.0160 p.m.,-0.15,-0.76,-0.03,-0.11,-0.21,-0.09
2022-02-17 5:46:40.0260 p.m.,-0.08,-0.85,-0.27,-0.11,-0.21,-0.09
2022-02-17 5:46:40.0360 p.m.,-0.02,-0.96,-0.55,-0.09,-0.25,-0.08
2022-02-17 5:46:40.0470 p.m.,0.05,-0.96,-0.9,-0.04,-0.22,-0.09
2022-02-17 5:46:40.0570 p.m.,0.1,-0.82,-1.22,-0.02,-0.17,-0.08
2022-02-17 5:46:40.0670 p.m.,0.12,-0.65,-1.43,-0.02,-0.17,-0.08
2022-02-17 5:46:40.0770 p.m.,0.1,-0.46,-1.52,-0.01,-0.11,-0.07
2022-02-17 5:46:40.0870 p.m.,0.13,-0.25,-1.49,-0.03,-0.04,-0.02
2022-02-17 5:46:40.0970 p.m.,0.07,-0.18,-1.4,-0.04,-0.06,-0.01
2022-02-17 5:46:40.1070 p.m.,0.03,-0.17,-1.37,-0.05,-0.07,-0.02
2022-02-17 5:46:40.1170 p.m.,0.06,-0.06,-1.44,-0.06,-0.06,-0.01
2022-02-17 5:46:40.1270 p.m.,0.06,0.06,-1.5,-0.09,-0.04,-0.01
2022-02-17 5:46:40.1370 p.m.,0,0.13,-1.51,-0.14,0.01,0.02
2022-02-17 5:46:40.1470 p.m.,0,0.3,-1.43,-0.14,0.01,0.02
2022-02-17 5:46:40.1570 p.m.,-0.08,0.34,-1.23,-0.18,0.09,0.08
2022-02-17 5:46:40.1670 p.m.,-0.21,0.31,-0.97,-0.17,0.07,0.11
2022-02-17 5:46:40.1770 p.m.,-0.24,0.34,-0.71,-0.14,0.04,0.14
2022-02-17 5:46:40.1870 p.m.,-0.23,0.29,-0.55,-0.11,0.02,0.14
2022-02-17 5:46:40.1970 p.m.,-0.15,0.23,-0.5,-0.08,0.03,0.13
2022-02-17 5:46:40.2070 p.m.,-0.05,0.24,-0.43,-0.04,0.07,0.12
2022-02-17 5:46:40.2170 p.m.,-0.05,0.27,-0.24,-0.01,0.14,0.12
2022-02-17 5:46:40.2270 p.m.,-0.03,0.3,-0.05,0.03,0.25,0.14
2022-02-17 5:46:40.2370 p.m.,-0.06,0.36,0.15,0.07,0.36,0.17
2022-02-17 5:46:40.2470 p.m.,-0.11,0.3,0.54,0.11,0.42,0.2
2022-02-17 5:46:40.2580 p.m.,-0.14,0.29,1.02,0.12,0.42,0.23
2022-02-17 5:46:40.2660 p.m.,-0.11,0.28,1.02,0.11,0.38,0.26
2022-02-17 5:46:40.2760 p.m.,-0.08,0.3,1.5,0.1,0.3,0.28
2022-02-17 5:46:40.2860 p.m.,0.01,0.33,1.9,0.12,0.24,0.28
2022-02-17 5:46:40.2960 p.m.,0.11,0.37,2.08,0.15,0.23,0.27
2022-02-17 5:46:40.3060 p.m.,0.21,0.42,2.08,0.19,0.26,0.25
2022-02-17 5:46:40.3160 p.m.,0.21,0.45,1.93,0.2,0.33,0.26
2022-02-17 5:46:40.3260 p.m.,0.13,0.5,1.8,0.14,0.44,0.31
2022-02-17 5:46:40.3360 p.m.,0.04,0.74,1.71,0.02,0.54,0.41
2022-02-17 5:46:40.3460 p.m.,-0.03,1.12,1.7,-0.18,0.6,0.55
2022-02-17 5:46:40.3560 p.m.,-0.2,1.39,1.83,-0.44,0.63,0.67
2022-02-17 5:46:40.3670 p.m.,-0.33,1.39,2.09,-0.67,0.56,0.75
2022-02-17 5:46:40.3760 p.m.,-0.42,1.16,2.36,-0.67,0.56,0.75
2022-02-17 5:46:40.3860 p.m.,-0.62,0.72,2.62,-0.93,0.15,0.79
2022-02-17 5:46:40.3970 p.m.,-0.81,0.2,2.83,-0.89,-0.08,0.76
2022-02-17 5:46:40.4070 p.m.,-0.89,-0.2,2.69,-0.75,-0.25,0.7
2022-02-17 5:46:40.4170 p.m.,-0.92,-0.53,2.25,-0.51,-0.35,0.64
2022-02-17 5:46:40.4270 p.m.,-0.91,-0.84,1.66,-0.2,-0.37,0.59
2022-02-17 5:46:40.4370 p.m.,-0.77,-0.99,0.9,0.1,-0.33,0.56
2022-02-17 5:46:40.4470 p.m.,-0.59,-1,0.08,0.35,-0.26,0.54
2022-02-17 5:46:40.4570 p.m.,-0.35,-0.95,-0.55,0.52,-0.15,0.48
2022-02-17 5:46:40.4670 p.m.,-0.04,-0.94,-0.93,0.61,-0.08,0.4
2022-02-17 5:46:40.4770 p.m.,0.16,-0.99,-1.19,0.63,0,0.31
2022-02-17 5:46:40.4870 p.m.,0.44,-0.94,-1.35,0.59,0.08,0.23
2022-02-17 5:46:40.4970 p.m.,0.54,-0.78,-1.39,0.49,0.17,0.18
2022-02-17 5:46:40.5070 p.m.,0.6,-0.49,-1.38,0.38,0.26,0.17
2022-02-17 5:46:40.5170 p.m.,0.56,-0.15,-1.28,0.27,0.36,0.21
2022-02-17 5:46:40.5270 p.m.,0.33,0.17,-1.17,0.16,0.43,0.29
2022-02-17 5:46:40.5370 p.m.,0.1,0.46,-0.95,0.05,0.47,0.39
2022-02-17 5:46:40.5470 p.m.,-0.11,0.59,-0.54,-0.05,0.43,0.49
2022-02-17 5:46:40.5570 p.m.,-0.41,0.5,-0.14,-0.14,0.32,0.57
2022-02-17 5:46:40.5670 p.m.,-0.66,0.26,0.27,-0.23,0.18,0.62
2022-02-17 5:46:40.5770 p.m.,-0.8,-0.03,0.6,-0.3,0.02,0.62
2022-02-17 5:46:40.5870 p.m.,-0.8,-0.33,0.77,-0.31,-0.15,0.58
2022-02-17 5:46:40.5980 p.m.,-0.78,-0.62,0.8,-0.25,-0.28,0.54
2022-02-17 5:46:40.6070 p.m.,-0.72,-0.79,0.58,-0.15,-0.35,0.47
2022-02-17 5:46:40.6170 p.m.,-0.59,-0.86,0.15,-0.03,-0.34,0.41
2022-02-17 5:46:40.6280 p.m.,-0.39,-0.87,-0.41,0.07,-0.26,0.33
2022-02-17 5:46:40.6380 p.m.,-0.19,-0.8,-0.92,0.15,-0.16,0.26
2022-02-17 5:46:40.6480 p.m.,-0.07,-0.7,-1.34,0.21,-0.03,0.19
2022-02-17 5:46:40.6580 p.m.,0.02,-0.57,-1.67,0.24,0.07,0.12
2022-02-17 5:46:40.6680 p.m.,0.04,-0.43,-1.8,0.25,0.12,0.07
2022-02-17 5:46:40.6780 p.m.,-0.07,-0.27,-1.79,0.24,0.14,0.05
2022-02-17 5:46:40.6880 p.m.,-0.15,-0.03,-1.69,0.22,0.1,0.04
2022-02-17 5:46:40.6980 p.m.,-0.21,0.24,-1.58,0.18,0.04,0.05
2022-02-17 5:46:40.7080 p.m.,-0.28,0.35,-1.45,0.1,-0.01,0.08
2022-02-17 5:46:40.7180 p.m.,-0.33,0.44,-1.39,0,-0.03,0.11
2022-02-17 5:46:40.7280 p.m.,-0.29,0.63,-1.44,-0.11,-0.02,0.15
2022-02-17 5:46:40.7380 p.m.,-0.25,0.71,-1.51,-0.19,0,0.17
2022-02-17 5:46:40.7480 p.m.,-0.2,0.72,-1.47,-0.24,0.01,0.16
2022-02-17 5:46:40.7580 p.m.,-0.18,0.64,-1.35,-0.27,0,0.12
2022-02-17 5:46:40.7680 p.m.,-0.18,0.49,-1.14,-0.28,-0.02,0.06
2022-02-17 5:46:40.7780 p.m.,-0.19,0.38,-0.87,-0.25,-0.04,0.01
2022-02-17 5:46:40.7880 p.m.,-0.22,0.33,-0.66,-0.2,-0.05,-0.04
2022-02-17 5:46:40.7980 p.m.,-0.18,0.4,-0.52,-0.13,-0.07,-0.08
2022-02-17 5:46:40.8080 p.m.,-0.16,0.44,-0.4,-0.04,-0.12,-0.13
2022-02-17 5:46:40.8180 p.m.,-0.13,0.42,-0.24,0.06,-0.17,-0.19
2022-02-17 5:46:40.8280 p.m.,-0.04,0.45,-0.16,0.15,-0.2,-0.25
2022-02-17 5:46:40.8380 p.m.,0.11,0.49,-0.15,0.22,-0.21,-0.31
2022-02-17 5:46:40.8480 p.m.,0.21,0.47,-0.17,0.27,-0.2,-0.37
2022-02-17 5:46:40.8580 p.m.,0.33,0.47,-0.21,0.3,-0.14,-0.42
2022-02-17 5:46:40.8680 p.m.,0.51,0.58,-0.22,0.31,-0.06,-0.45
2022-02-17 5:46:40.8790 p.m.,0.66,0.71,-0.23,0.29,0.05,-0.47
2022-02-17 5:46:40.8890 p.m.,0.7,0.78,-0.05,0.25,0.18,-0.49
2022-02-17 5:46:40.8990 p.m.,0.64,0.75,0.23,0.2,0.29,-0.5
2022-02-17 5:46:40.9090 p.m.,0.48,0.69,0.69,0.17,0.31,-0.49
2022-02-17 5:46:40.9190 p.m.,0.28,0.64,1.43,0.18,0.16,-0.48
2022-02-17 5:46:40.9290 p.m.,0.23,0.67,2.26,0.18,0.16,-0.48
2022-02-17 5:46:40.9390 p.m.,0.23,0.78,2.99,0.25,-0.38,-0.44
2022-02-17 5:46:40.9500 p.m.,0.49,1.04,3.11,0.18,-0.51,-0.42
2022-02-17 5:46:40.9610 p.m.,0.92,1.2,2.6,0.18,-0.51,-0.42
2022-02-17 5:46:40.9700 p.m.,1.16,1.28,2.12,-0.07,-0.53,-0.39
2022-02-17 5:46:40.9800 p.m.,1.16,1.19,1.61,-0.19,-0.42,-0.38
2022-02-17 5:46:40.9910 p.m.,1.04,0.96,1.13,-0.31,-0.23,-0.37
2022-02-17 5:46:41.0000 p.m.,0.92,0.69,0.9,-0.44,-0.04,-0.38
2022-02-17 5:46:41.0110 p.m.,0.67,0.31,0.95,-0.59,0.08,-0.39
2022-02-17 5:46:41.0210 p.m.,0.36,-0.15,1.41,-0.69,0.07,-0.41
2022-02-17 5:46:41.0310 p.m.,0.02,-0.57,1.98,-0.67,-0.1,-0.43
2022-02-17 5:46:41.0410 p.m.,-0.23,-0.97,2.28,-0.54,-0.38,-0.48
2022-02-17 5:46:41.0510 p.m.,-0.39,-1.31,2.31,-0.33,-0.72,-0.54
2022-02-17 5:46:41.0610 p.m.,-0.41,-1.52,1.86,-0.11,-0.93,-0.62
2022-02-17 5:46:41.0710 p.m.,-0.15,-1.48,0.93,0.08,-0.96,-0.68
2022-02-17 5:46:41.0810 p.m.,0.26,-1.22,-0.08,0.23,-0.88,-0.73
2022-02-17 5:46:41.0910 p.m.,0.49,-1.04,-0.8,0.23,-0.88,-0.73
2022-02-17 5:46:41.1010 p.m.,0.76,-0.83,-1.22,0.3,-0.54,-0.81
2022-02-17 5:46:41.1110 p.m.,0.99,-0.69,-1.34,0.25,-0.38,-0.86
2022-02-17 5:46:41.1210 p.m.,1.07,-0.71,-1.32,0.2,-0.25,-0.94
2022-02-17 5:46:41.1310 p.m.,1.06,-0.72,-1.19,0.17,-0.17,-1.01
2022-02-17 5:46:41.1410 p.m.,0.95,-0.69,-0.97,0.18,-0.1,-1.05
2022-02-17 5:46:41.1510 p.m.,0.81,-0.55,-0.81,0.22,-0.03,-1.03
2022-02-17 5:46:41.1610 p.m.,0.64,-0.38,-0.65,0.26,0.06,-0.96
2022-02-17 5:46:41.1710 p.m.,0.56,-0.26,-0.48,0.28,0.13,-0.88
2022-02-17 5:46:41.1810 p.m.,0.48,-0.22,-0.32,0.28,0.18,-0.79
2022-02-17 5:46:41.1910 p.m.,0.43,-0.31,-0.09,0.24,0.18,-0.72
2022-02-17 5:46:41.2010 p.m.,0.36,-0.45,0.14,0.15,0.17,-0.65
2022-02-17 5:46:41.2110 p.m.,0.29,-0.56,0.36,0.03,0.12,-0.58
2022-02-17 5:46:41.2210 p.m.,0.2,-0.67,0.59,-0.07,0.04,-0.52
2022-02-17 5:46:41.2320 p.m.,0.09,-0.81,0.68,-0.12,-0.06,-0.46
2022-02-17 5:46:41.2420 p.m.,0,-0.99,0.68,-0.13,-0.18,-0.42
2022-02-17 5:46:41.2520 p.m.,0.01,-1.1,0.55,-0.1,-0.29,-0.4
2022-02-17 5:46:41.2620 p.m.,0.08,-1.18,0.29,-0.05,-0.37,-0.4
2022-02-17 5:46:41.2720 p.m.,0.17,-1.22,-0.16,0.01,-0.4,-0.41
2022-02-17 5:46:41.2820 p.m.,0.28,-1.22,-0.68,0.05,-0.37,-0.42
2022-02-17 5:46:41.2920 p.m.,0.37,-1.12,-1.15,0.05,-0.37,-0.42
2022-02-17 5:46:41.3020 p.m.,0.45,-0.96,-1.5,0.08,-0.26,-0.42
2022-02-17 5:46:41.3120 p.m.,0.48,-0.75,-1.68,0.05,-0.23,-0.4
2022-02-17 5:46:41.3220 p.m.,0.46,-0.58,-1.74,0,-0.23,-0.38
2022-02-17 5:46:41.3320 p.m.,0.45,-0.45,-1.76,-0.06,-0.25,-0.37
2022-02-17 5:46:41.3420 p.m.,0.43,-0.38,-1.78,-0.13,-0.27,-0.37
2022-02-17 5:46:41.3530 p.m.,0.4,-0.28,-1.8,-0.18,-0.27,-0.38
2022-02-17 5:46:41.3620 p.m.,0.36,-0.1,-1.88,-0.2,-0.24,-0.38
2022-02-17 5:46:41.3720 p.m.,0.31,0.1,-1.93,-0.19,-0.17,-0.36
2022-02-17 5:46:41.3820 p.m.,0.21,0.27,-1.9,-0.19,-0.17,-0.36
2022-02-17 5:46:41.3920 p.m.,0.13,0.41,-1.79,-0.17,-0.07,-0.34
2022-02-17 5:46:41.4020 p.m.,0.04,0.46,-1.51,-0.14,0.08,-0.27
2022-02-17 5:46:41.4120 p.m.,-0.02,0.43,-1.09,-0.12,0.08,-0.24
2022-02-17 5:46:41.4220 p.m.,-0.08,0.44,-0.74,-0.1,0.05,-0.2
2022-02-17 5:46:41.4320 p.m.,-0.05,0.48,-0.48,-0.1,0.05,-0.2
2022-02-17 5:46:41.4420 p.m.,-0.01,0.46,-0.35,-0.04,-0.03,-0.17
2022-02-17 5:46:41.4520 p.m.,0.01,0.44,-0.4,0,0,-0.17
2022-02-17 5:46:41.4620 p.m.,0.09,0.49,-0.48,0.03,0.08,-0.16
2022-02-17 5:46:41.4730 p.m.,0.12,0.57,-0.48,0.07,0.19,-0.13
2022-02-17 5:46:41.4830 p.m.,0.03,0.63,-0.34,0.09,0.3,-0.08
2022-02-17 5:46:41.4930 p.m.,-0.04,0.71,0,0.12,0.34,-0.03
2022-02-17 5:46:41.5030 p.m.,-0.16,0.73,0.41,0.12,0.34,-0.03
2022-02-17 5:46:41.5130 p.m.,-0.17,0.71,0.78,0.13,0.27,0.11
2022-02-17 5:46:41.5230 p.m.,-0.13,0.66,1.06,0.11,0.2,0.17
2022-02-17 5:46:41.5330 p.m.,-0.02,0.6,1.28,0.08,0.14,0.19
2022-02-17 5:46:41.5430 p.m.,0.16,0.63,1.42,0.08,0.14,0.19
2022-02-17 5:46:41.5530 p.m.,0.3,0.7,1.51,-0.04,0.17,0.24
2022-02-17 5:46:41.5630 p.m.,0.37,0.76,1.64,-0.11,0.24,0.27
2022-02-17 5:46:41.5730 p.m.,0.35,0.82,1.89,-0.19,0.31,0.31
2022-02-17 5:46:41.5830 p.m.,0.3,0.9,2.17,-0.27,0.36,0.37
2022-02-17 5:46:41.5930 p.m.,0.24,0.86,2.37,-0.35,0.4,0.42
2022-02-17 5:46:41.6030 p.m.,0.11,0.66,2.48,-0.35,0.4,0.42
2022-02-17 5:46:41.6130 p.m.,-0.05,0.32,2.5,-0.53,0.4,0.46
2022-02-17 5:46:41.6230 p.m.,-0.23,0,2.55,-0.64,0.38,0.48
2022-02-17 5:46:41.6330 p.m.,-0.4,-0.24,2.7,-0.73,0.31,0.5
2022-02-17 5:46:41.6430 p.m.,-0.58,-0.49,2.82,-0.74,0.19,0.5
2022-02-17 5:46:41.6530 p.m.,-0.79,-0.82,2.73,-0.67,0.05,0.48
2022-02-17 5:46:41.6630 p.m.,-0.79,-1.17,2.48,-0.48,-0.12,0.43
2022-02-17 5:46:41.6730 p.m.,-0.82,-1.51,2.05,-0.19,-0.29,0.36
2022-02-17 5:46:41.6830 p.m.,-0.71,-1.69,1.33,0.13,-0.39,0.29
2022-02-17 5:46:41.6930 p.m.,-0.47,-1.7,0.48,0.45,-0.41,0.21
2022-02-17 5:46:41.7040 p.m.,-0.18,-1.66,-0.44,0.68,-0.36,0.14
2022-02-17 5:46:41.7140 p.m.,0.11,-1.5,-1.12,0.8,-0.24,0.09
2022-02-17 5:46:41.7240 p.m.,0.42,-1.2,-1.57,0.81,-0.1,0.06
2022-02-17 5:46:41.7340 p.m.,0.67,-0.86,-1.76,0.7,0.02,0.03
2022-02-17 5:46:41.7440 p.m.,0.73,-0.7,-1.68,0.52,0.12,0
2022-02-17 5:46:41.7540 p.m.,0.68,-0.54,-1.45,0.33,0.19,-0.01
2022-02-17 5:46:41.7640 p.m.,0.55,-0.3,-1.2,0.14,0.23,-0.01
2022-02-17 5:46:41.7740 p.m.,0.34,-0.08,-0.85,-0.04,0.26,0.04
2022-02-17 5:46:41.7840 p.m.,0.07,0.01,-0.47,-0.18,0.31,0.1
2022-02-17 5:46:41.7940 p.m.,-0.18,-0.01,-0.12,-0.3,0.34,0.16
2022-02-17 5:46:41.8040 p.m.,-0.45,-0.15,0.27,-0.4,0.35,0.22
2022-02-17 5:46:41.8140 p.m.,-0.62,-0.35,0.7,-0.48,0.33,0.27
2022-02-17 5:46:41.8240 p.m.,-0.7,-0.56,1.19,-0.5,0.2,0.29
2022-02-17 5:46:41.8340 p.m.,-0.88,-0.87,1.56,-0.42,-0.02,0.27
2022-02-17 5:46:41.8440 p.m.,-1.02,-1.17,1.65,-0.29,-0.27,0.22
2022-02-17 5:46:41.8540 p.m.,-0.94,-1.26,1.43,-0.12,-0.47,0.16
2022-02-17 5:46:41.8640 p.m.,-0.76,-1.18,0.76,0.04,-0.52,0.09
2022-02-17 5:46:41.8740 p.m.,-0.56,-1.01,-0.14,0.16,-0.47,0.02
2022-02-17 5:46:41.8840 p.m.,-0.33,-0.76,-0.87,0.24,-0.36,-0.03
2022-02-17 5:46:41.8940 p.m.,-0.22,-0.55,-1.33,0.27,-0.24,-0.08
2022-02-17 5:46:41.9040 p.m.,-0.14,-0.34,-1.57,0.26,-0.14,-0.13
2022-02-17 5:46:41.9140 p.m.,-0.14,-0.18,-1.69,0.23,-0.08,-0.17
2022-02-17 5:46:41.9240 p.m.,-0.22,0.04,-1.71,0.19,-0.06,-0.19
2022-02-17 5:46:41.9340 p.m.,-0.33,0.24,-1.65,0.19,-0.06,-0.19
2022-02-17 5:46:41.9440 p.m.,-0.39,0.41,-1.49,0.08,-0.07,-0.19
2022-02-17 5:46:41.9550 p.m.,-0.46,0.59,-1.35,0.05,-0.08,-0.17
2022-02-17 5:46:41.9640 p.m.,-0.59,0.67,-1.24,0.02,-0.09,-0.13
2022-02-17 5:46:41.9750 p.m.,-0.68,0.75,-1.1,-0.02,-0.08,-0.08
2022-02-17 5:46:41.9850 p.m.,-0.73,0.86,-0.95,-0.06,-0.07,-0.02
2022-02-17 5:46:41.9950 p.m.,-0.8,0.85,-0.75,-0.09,-0.07,0.01
2022-02-17 5:46:42.0050 p.m.,-0.9,0.76,-0.51,-0.11,-0.09,0.02
2022-02-17 5:46:42.0150 p.m.,-0.95,0.68,-0.23,-0.11,-0.09,0.02
2022-02-17 5:46:42.0250 p.m.,-1.04,0.57,-0.03,-0.09,-0.16,-0.01
2022-02-17 5:46:42.0350 p.m.,-1.03,0.58,0.08,-0.05,-0.2,-0.02
2022-02-17 5:46:42.0450 p.m.,-1.03,0.63,0.1,0.01,-0.22,-0.02
2022-02-17 5:46:42.0550 p.m.,-1.02,0.62,0.07,0.06,-0.22,-0.02
2022-02-17 5:46:42.0650 p.m.,-0.95,0.64,0.05,0.06,-0.22,-0.02
2022-02-17 5:46:42.0750 p.m.,-0.85,0.67,0,0.11,-0.22,-0.03
2022-02-17 5:46:42.0850 p.m.,-0.8,0.7,-0.09,0.18,-0.21,-0.05
2022-02-17 5:46:42.0950 p.m.,-0.71,0.7,-0.11,0.27,-0.15,-0.09
2022-02-17 5:46:42.1050 p.m.,-0.67,0.69,-0.01,0.27,-0.15,-0.09
2022-02-17 5:46:42.1150 p.m.,-0.6,0.68,0.15,0.28,-0.15,-0.1
2022-02-17 5:46:42.1250 p.m.,-0.59,0.61,0.38,0.28,-0.19,-0.1
2022-02-17 5:46:42.1350 p.m.,-0.59,0.52,0.51,0.29,-0.2,-0.09
2022-02-17 5:46:42.1450 p.m.,-0.51,0.48,0.51,0.28,-0.2,-0.08
2022-02-17 5:46:42.1550 p.m.,-0.47,0.34,0.56,0.28,-0.2,-0.07
2022-02-17 5:46:42.1650 p.m.,-0.46,0.2,0.7,0.29,-0.19,-0.08
2022-02-17 5:46:42.1760 p.m.,-0.43,0.14,0.8,0.32,-0.21,-0.09
2022-02-17 5:46:42.1850 p.m.,-0.38,0.19,0.89,0.34,-0.23,-0.1
2022-02-17 5:46:42.1960 p.m.,-0.24,0.43,0.85,0.34,-0.23,-0.09
2022-02-17 5:46:42.2050 p.m.,-0.05,0.7,0.71,0.3,-0.21,-0.08
2022-02-17 5:46:42.2160 p.m.,0.1,0.85,0.59,0.22,-0.15,-0.07
2022-02-17 5:46:42.2260 p.m.,0.23,1,0.53,0.09,-0.08,-0.04
2022-02-17 5:46:42.2360 p.m.,0.32,1.05,0.58,-0.07,0.04,0
2022-02-17 5:46:42.2460 p.m.,0.29,1.01,0.77,-0.26,0.15,0.04
2022-02-17 5:46:42.2560 p.m.,0.18,0.76,1.16,-0.44,0.2,0.09
2022-02-17 5:46:42.2660 p.m.,-0.09,0.35,1.75,-0.57,0.18,0.12
2022-02-17 5:46:42.2760 p.m.,-0.29,-0.09,2.32,-0.6,0.06,0.12
2022-02-17 5:46:42.2860 p.m.,-0.48,-0.61,2.68,-0.52,-0.11,0.1
2022-02-17 5:46:42.2960 p.m.,-0.67,-1.04,2.73,-0.33,-0.34,0.07
2022-02-17 5:46:42.3060 p.m.,-0.77,-1.36,2.41,-0.12,-0.5,0.01
2022-02-17 5:46:42.3160 p.m.,-0.69,-1.53,1.71,0.04,-0.52,-0.04
2022-02-17 5:46:42.3260 p.m.,-0.44,-1.42,0.84,0.04,-0.52,-0.04
2022-02-17 5:46:42.3360 p.m.,-0.25,-1.32,0.13,0.23,-0.29,-0.12
2022-02-17 5:46:42.3470 p.m.,-0.19,-1.29,-0.33,0.31,-0.17,-0.17
2022-02-17 5:46:42.3560 p.m.,-0.12,-1.27,-0.62,0.36,-0.08,-0.21
2022-02-17 5:46:42.3660 p.m.,-0.02,-1.27,-0.7,0.39,-0.04,-0.24
2022-02-17 5:46:42.3760 p.m.,0.01,-1.29,-0.61,0.37,-0.06,-0.27
2022-02-17 5:46:42.3860 p.m.,0.05,-1.29,-0.42,0.3,-0.13,-0.28
2022-02-17 5:46:42.3960 p.m.,0.12,-1.22,-0.26,0.2,-0.22,-0.28
2022-02-17 5:46:42.4060 p.m.,0.21,-1.12,-0.17,0.09,-0.27,-0.26
2022-02-17 5:46:42.4170 p.m.,0.32,-1.07,-0.23,0.03,-0.25,-0.26
2022-02-17 5:46:42.4270 p.m.,0.45,-1.02,-0.38,0.02,-0.19,-0.24
2022-02-17 5:46:42.4370 p.m.,0.57,-0.95,-0.44,0.04,-0.09,-0.23
2022-02-17 5:46:42.4470 p.m.,0.66,-0.93,-0.49,0.1,0.03,-0.23
2022-02-17 5:46:42.4570 p.m.,0.71,-0.92,-0.52,0.14,0.16,-0.23
2022-02-17 5:46:42.4670 p.m.,0.71,-0.91,-0.46,0.14,0.16,-0.23
2022-02-17 5:46:42.4770 p.m.,0.6,-0.86,-0.27,0.14,0.36,-0.21
2022-02-17 5:46:42.4870 p.m.,0.46,-0.71,0.05,0.1,0.38,-0.14
2022-02-17 5:46:42.4970 p.m.,0.31,-0.58,0.42,0.03,0.34,-0.07
2022-02-17 5:46:42.5070 p.m.,0.14,-0.58,0.81,-0.07,0.26,0.01
2022-02-17 5:46:42.5170 p.m.,0.02,-0.63,1.08,-0.19,0.14,0.08
2022-02-17 5:46:42.5270 p.m.,-0.04,-0.66,1.27,-0.28,0.01,0.15
2022-02-17 5:46:42.5370 p.m.,-0.09,-0.77,1.31,-0.33,-0.12,0.19
2022-02-17 5:46:42.5470 p.m.,-0.11,-0.93,1.14,-0.33,-0.19,0.22
2022-02-17 5:46:42.5570 p.m.,-0.05,-1.02,0.84,-0.28,-0.21,0.23
2022-02-17 5:46:42.5670 p.m.,-0.01,-1.14,0.51,-0.18,-0.18,0.23
2022-02-17 5:46:42.5770 p.m.,0,-1.19,0.18,-0.06,-0.12,0.22
2022-02-17 5:46:42.5870 p.m.,0.04,-1.13,-0.1,0.02,-0.04,0.22
2022-02-17 5:46:42.5970 p.m.,0.07,-1.02,-0.17,0.08,-0.01,0.22
2022-02-17 5:46:42.6070 p.m.,0.08,-0.95,-0.17,0.1,0.01,0.21
2022-02-17 5:46:42.6170 p.m.,0.11,-0.85,-0.16,0.08,0,0.22
2022-02-17 5:46:42.6270 p.m.,0.15,-0.75,-0.19,0.05,-0.02,0.22
2022-02-17 5:46:42.6380 p.m.,0.16,-0.69,-0.27,0,-0.04,0.22
2022-02-17 5:46:42.6470 p.m.,0.18,-0.63,-0.35,-0.03,-0.02,0.23
2022-02-17 5:46:42.6580 p.m.,0.22,-0.53,-0.44,-0.04,0.03,0.25
2022-02-17 5:46:42.6680 p.m.,0.21,-0.47,-0.48,-0.04,0.08,0.26
2022-02-17 5:46:42.6780 p.m.,0.2,-0.45,-0.38,-0.01,0.12,0.27
2022-02-17 5:46:42.6880 p.m.,0.16,-0.47,-0.24,0.02,0.14,0.28
2022-02-17 5:46:42.6980 p.m.,0.12,-0.47,-0.13,0.04,0.17,0.29
2022-02-17 5:46:42.7080 p.m.,0.12,-0.43,-0.06,0.04,0.21,0.31
2022-02-17 5:46:42.7180 p.m.,0.1,-0.36,-0.02,0.03,0.26,0.34
2022-02-17 5:46:42.7280 p.m.,0.08,-0.27,0.09,0.03,0.28,0.37
2022-02-17 5:46:42.7380 p.m.,-0.02,-0.31,0.27,0.03,0.31,0.4
2022-02-17 5:46:42.7480 p.m.,-0.08,-0.36,0.4,0.05,0.32,0.42
2022-02-17 5:46:42.7580 p.m.,-0.08,-0.38,0.57,0.06,0.31,0.44
2022-02-17 5:46:42.7680 p.m.,-0.17,-0.5,0.75,0.08,0.28,0.46
2022-02-17 5:46:42.7780 p.m.,-0.2,-0.52,0.92,0.08,0.22,0.48
2022-02-17 5:46:42.7880 p.m.,-0.21,-0.53,1.06,0.08,0.17,0.51
2022-02-17 5:46:42.7980 p.m.,-0.21,-0.54,1.13,0.11,0.13,0.52
2022-02-17 5:46:42.8080 p.m.,-0.18,-0.55,1.07,0.18,0.13,0.52
2022-02-17 5:46:42.8180 p.m.,-0.09,-0.54,0.94,0.29,0.16,0.51
2022-02-17 5:46:42.8280 p.m.,0.05,-0.45,0.76,0.41,0.24,0.5
2022-02-17 5:46:42.8380 p.m.,0.18,-0.29,0.57,0.48,0.35,0.5
2022-02-17 5:46:42.8490 p.m.,0.23,-0.13,0.42,0.51,0.49,0.52
2022-02-17 5:46:42.8580 p.m.,0.21,0.01,0.38,0.48,0.6,0.55
2022-02-17 5:46:42.8680 p.m.,0.12,0.11,0.58,0.39,0.63,0.6
2022-02-17 5:46:42.8780 p.m.,-0.02,0.1,0.95,0.25,0.58,0.65
2022-02-17 5:46:42.8880 p.m.,-0.21,-0.01,1.35,0.11,0.46,0.69
2022-02-17 5:46:42.8990 p.m.,-0.44,-0.17,1.62,0,0.32,0.73
2022-02-17 5:46:42.9090 p.m.,-0.58,-0.36,1.65,-0.04,0.16,0.75
2022-02-17 5:46:42.9190 p.m.,-0.7,-0.59,1.5,-0.03,0.02,0.75
2022-02-17 5:46:42.9290 p.m.,-0.73,-0.79,1.17,0.02,-0.06,0.74
2022-02-17 5:46:42.9390 p.m.,-0.65,-0.91,0.69,0.1,-0.08,0.72
2022-02-17 5:46:42.9490 p.m.,-0.51,-0.98,0.13,0.18,-0.05,0.69
2022-02-17 5:46:42.9590 p.m.,-0.36,-1.01,-0.4,0.25,0.01,0.65
2022-02-17 5:46:42.9690 p.m.,-0.17,-1,-0.76,0.3,0.08,0.61
2022-02-17 5:46:42.9790 p.m.,-0.07,-0.94,-1.03,0.32,0.12,0.58
2022-02-17 5:46:42.9890 p.m.,0.1,-0.88,-1.13,0.31,0.16,0.54
2022-02-17 5:46:42.9990 p.m.,0.23,-0.86,-1.2,0.3,0.19,0.48
2022-02-17 5:46:43.0090 p.m.,0.31,-0.85,-1.24,0.28,0.23,0.43
2022-02-17 5:46:43.0190 p.m.,0.4,-0.79,-1.23,0.26,0.27,0.38
2022-02-17 5:46:43.0290 p.m.,0.41,-0.7,-1.21,0.24,0.32,0.34
2022-02-17 5:46:43.0390 p.m.,0.42,-0.55,-1.14,0.2,0.39,0.33
2022-02-17 5:46:43.0490 p.m.,0.42,-0.35,-0.98,0.14,0.46,0.35
2022-02-17 5:46:43.0600 p.m.,0.38,-0.21,-0.74,0.08,0.5,0.39
2022-02-17 5:46:43.0690 p.m.,0.31,-0.2,-0.4,0.01,0.5,0.41
2022-02-17 5:46:43.0790 p.m.,0.22,-0.3,0.06,0.01,0.5,0.41
2022-02-17 5:46:43.0890 p.m.,0.13,-0.43,0.41,-0.14,0.41,0.42
2022-02-17 5:46:43.0990 p.m.,0.09,-0.52,0.64,-0.19,0.36,0.43
2022-02-17 5:46:43.1100 p.m.,0.03,-0.59,0.82,-0.24,0.31,0.42
2022-02-17 5:46:43.1200 p.m.,-0.02,-0.64,0.99,-0.26,0.25,0.42
2022-02-17 5:46:43.1300 p.m.,-0.02,-0.7,1.08,-0.23,0.2,0.4
2022-02-17 5:46:43.1400 p.m.,-0.05,-0.75,1.11,-0.17,0.16,0.37
2022-02-17 5:46:43.1500 p.m.,-0.06,-0.76,1.02,-0.08,0.12,0.35
2022-02-17 5:46:43.1600 p.m.,-0.04,-0.74,0.9,-0.08,0.12,0.35
2022-02-17 5:46:43.1700 p.m.,-0.01,-0.73,0.71,0.06,0.11,0.29
2022-02-17 5:46:43.1800 p.m.,0.08,-0.62,0.46,0.08,0.15,0.27
2022-02-17 5:46:43.1900 p.m.,0.11,-0.51,0.22,0.07,0.18,0.25
2022-02-17 5:46:43.2000 p.m.,0.1,-0.42,0.12,0.03,0.19,0.24
2022-02-17 5:46:43.2100 p.m.,0.07,-0.35,0.1,-0.02,0.18,0.25
2022-02-17 5:46:43.2200 p.m.,0.01,-0.31,0.1,-0.05,0.16,0.26
2022-02-17 5:46:43.2300 p.m.,-0.04,-0.32,0.16,-0.06,0.1,0.26
2022-02-17 5:46:43.2400 p.m.,-0.11,-0.42,0.24,-0.05,0.07,0.24
2022-02-17 5:46:43.2500 p.m.,-0.12,-0.5,0.21,-0.02,0.05,0.24
2022-02-17 5:46:43.2600 p.m.,-0.07,-0.44,0.18,0,0.03,0.22
2022-02-17 5:46:43.2700 p.m.,-0.08,-0.49,0.16,0.01,0.04,0.21
2022-02-17 5:46:43.2800 p.m.,-0.03,-0.47,0.1,0.02,0.08,0.2
2022-02-17 5:46:43.2900 p.m.,0.07,-0.39,0.02,0.02,0.08,0.2
2022-02-17 5:46:43.3000 p.m.,0.05,-0.39,0.03,0.06,0.15,0.18
2022-02-17 5:46:43.3100 p.m.,0.04,-0.4,0.09,0.07,0.14,0.17
2022-02-17 5:46:43.3200 p.m.,0.05,-0.41,0.18,0.07,0.14,0.17
2022-02-17 5:46:43.3300 p.m.,0.02,-0.44,0.22,0.08,0.09,0.15
2022-02-17 5:46:43.3410 p.m.,0.02,-0.41,0.17,0.07,0.08,0.16
2022-02-17 5:46:43.3510 p.m.,0.05,-0.32,0.08,0.03,0.09,0.18
2022-02-17 5:46:43.3610 p.m.,0.09,-0.27,0.06,0,0.09,0.18
2022-02-17 5:46:43.3710 p.m.,0.1,-0.33,0.06,-0.04,0.08,0.17
2022-02-17 5:46:43.3810 p.m.,0.1,-0.36,0.07,-0.04,0.08,0.17
2022-02-17 5:46:43.3910 p.m.,0.13,-0.34,0.13,-0.1,0.05,0.16
2022-02-17 5:46:43.4010 p.m.,0.1,-0.38,0.24,-0.1,0.03,0.14
2022-02-17 5:46:43.4110 p.m.,0.03,-0.44,0.27,-0.08,0.01,0.13
2022-02-17 5:46:43.4210 p.m.,0.05,-0.41,0.24,-0.05,0.02,0.13
2022-02-17 5:46:43.4310 p.m.,0.05,-0.36,0.18,-0.03,0.05,0.12
2022-02-17 5:46:43.4410 p.m.,0.05,-0.31,0.14,-0.02,0.07,0.11
2022-02-17 5:46:43.4510 p.m.,0.04,-0.28,0.15,0,0.08,0.1
2022-02-17 5:46:43.4610 p.m.,0.01,-0.27,0.17,-0.01,0.08,0.1
2022-02-17 5:46:43.4710 p.m.,0.01,-0.19,0.2,-0.01,0.08,0.1
2022-02-17 5:46:43.4810 p.m.,-0.02,-0.12,0.23,-0.04,0.03,0.09
2022-02-17 5:46:43.4910 p.m.,-0.03,-0.13,0.23,-0.06,0,0.08
2022-02-17 5:46:43.5010 p.m.,0,-0.12,0.2,-0.07,0,0.07
2022-02-17 5:46:43.5110 p.m.,0.03,-0.1,0.09,-0.07,0.01,0.06
2022-02-17 5:46:43.5210 p.m.,0.05,-0.08,0.1,-0.06,0.01,0.06
2022-02-17 5:46:43.5310 p.m.,0.05,-0.07,0.16,-0.05,0.02,0.05
2022-02-17 5:46:43.5410 p.m.,0.05,-0.08,0.18,-0.05,0.03,0.04
2022-02-17 5:46:43.5520 p.m.,0.07,-0.09,0.18,-0.04,0.03,0.04
2022-02-17 5:46:43.5610 p.m.,0.06,-0.1,0.17,-0.02,0.03,0.03
2022-02-17 5:46:43.5710 p.m.,0.07,-0.12,0.14,-0.01,0.04,0.02
2022-02-17 5:46:43.5820 p.m.,0.09,-0.16,0.14,-0.01,0.04,0
2022-02-17 5:46:43.5920 p.m.,0.08,-0.18,0.14,-0.01,0.04,-0.01
2022-02-17 5:46:43.6020 p.m.,0.08,-0.12,0.13,-0.02,0.04,-0.01
2022-02-17 5:46:43.6110 p.m.,0.07,-0.07,0.15,-0.02,0.03,-0.02
2022-02-17 5:46:43.6220 p.m.,0.04,-0.06,0.18,-0.01,0.02,-0.01
2022-02-17 5:46:43.6320 p.m.,0.02,-0.03,0.19,0,0,-0.02
2022-02-17 5:46:43.6420 p.m.,0.01,-0.04,0.17,0.01,-0.02,-0.04
2022-02-17 5:46:43.6520 p.m.,0.01,-0.04,0.11,0.03,-0.02,-0.05
2022-02-17 5:46:43.6620 p.m.,0.03,0.02,0.06,0.03,-0.02,-0.04
2022-02-17 5:46:43.6720 p.m.,0.05,0.08,0.04,0.02,0,-0.04
2022-02-17 5:46:43.6820 p.m.,0.05,0.14,0.02,0.02,0,-0.04
2022-02-17 5:46:43.6920 p.m.,0.03,0.15,0.06,0.02,-0.01,-0.01
2022-02-17 5:46:43.7020 p.m.,0.01,0.12,0.1,0.02,-0.01,-0.01
2022-02-17 5:46:43.7120 p.m.,0.03,0.1,0.1,0.02,-0.04,0
2022-02-17 5:46:43.7220 p.m.,0.06,0.08,0.08,0.01,-0.05,-0.01
2022-02-17 5:46:43.7320 p.m.,0.1,0.03,0.02,0,-0.05,-0.01
2022-02-17 5:46:43.7420 p.m.,0.12,-0.01,-0.04,-0.02,-0.04,-0.01
2022-02-17 5:46:43.7520 p.m.,0.15,0.03,-0.07,-0.04,-0.01,0
2022-02-17 5:46:43.7620 p.m.,0.17,0.04,-0.08,-0.05,0,0.01
2022-02-17 5:46:43.7720 p.m.,0.13,-0.01,-0.03,-0.05,0,0
2022-02-17 5:46:43.7820 p.m.,0.1,-0.08,0.06,-0.04,-0.02,-0.02
2022-02-17 5:46:43.7920 p.m.,0.09,-0.16,0.12,-0.03,-0.04,-0.03
2022-02-17 5:46:43.8020 p.m.,0.12,-0.16,0.13,-0.03,-0.05,-0.05
2022-02-17 5:46:43.8120 p.m.,0.11,-0.12,0.1,-0.03,-0.05,-0.05
2022-02-17 5:46:43.8230 p.m.,0.12,-0.06,0.07,-0.03,-0.06,-0.06
2022-02-17 5:46:43.8330 p.m.,0.11,-0.05,0.05,-0.02,-0.06,-0.07
2022-02-17 5:46:43.8430 p.m.,0.07,-0.08,0.01,-0.01,-0.05,-0.08
2022-02-17 5:46:43.8530 p.m.,0.09,-0.06,-0.02,0,-0.05,-0.09
2022-02-17 5:46:43.8630 p.m.,0.06,-0.04,-0.07,0.02,-0.04,-0.1
2022-02-17 5:46:43.8730 p.m.,0.05,0,-0.13,0.03,-0.03,-0.1
2022-02-17 5:46:43.8830 p.m.,0.08,0.1,-0.16,0.03,-0.01,-0.09
2022-02-17 5:46:43.8930 p.m.,0.06,0.15,-0.18,0.01,0,-0.08
2022-02-17 5:46:43.9030 p.m.,0.07,0.18,-0.11,-0.02,-0.01,-0.09
2022-02-17 5:46:43.9130 p.m.,0.03,0.16,-0.04,-0.04,-0.02,-0.08
2022-02-17 5:46:43.9230 p.m.,0,0.15,0.02,-0.06,-0.02,-0.09
2022-02-17 5:46:43.9330 p.m.,-0.02,0.14,0.09,-0.07,-0.03,-0.09
2022-02-17 5:46:43.9430 p.m.,-0.04,0.13,0.12,-0.05,-0.04,-0.1
2022-02-17 5:46:43.9530 p.m.,-0.06,0.1,0.1,-0.02,-0.03,-0.1
2022-02-17 5:46:43.9630 p.m.,-0.06,0.12,0.08,0.01,-0.01,-0.1
2022-02-17 5:46:43.9730 p.m.,-0.02,0.18,0.08,0.02,0,-0.09
2022-02-17 5:46:43.9830 p.m.,-0.03,0.2,0.11,0.03,-0.01,-0.08
2022-02-17 5:46:43.9930 p.m.,-0.03,0.18,0.16,0.01,-0.01,-0.08
2022-02-17 5:46:44.0030 p.m.,-0.02,0.19,0.17,0,-0.02,-0.07
2022-02-17 5:46:44.0130 p.m.,-0.04,0.18,0.2,-0.01,-0.03,-0.07
2022-02-17 5:46:44.0230 p.m.,-0.08,0.14,0.22,0,-0.05,-0.08
2022-02-17 5:46:44.0330 p.m.,-0.11,0.12,0.2,0.01,-0.05,-0.07
2022-02-17 5:46:44.0430 p.m.,-0.12,0.14,0.15,0.03,-0.04,-0.07
2022-02-17 5:46:44.0530 p.m.,-0.12,0.17,0.1,0.05,-0.04,-0.06
2022-02-17 5:46:44.0630 p.m.,-0.13,0.18,0.04,0.05,-0.03,-0.06
2022-02-17 5:46:44.0730 p.m.,-0.1,0.2,0.01,0.05,-0.02,-0.05
2022-02-17 5:46:44.0840 p.m.,-0.09,0.21,-0.02,0.04,-0.02,-0.05
2022-02-17 5:46:44.0940 p.m.,-0.08,0.2,-0.06,0.02,-0.01,-0.05
2022-02-17 5:46:44.1040 p.m.,-0.08,0.18,-0.06,0,-0.02,-0.04
2022-02-17 5:46:44.1140 p.m.,-0.1,0.15,-0.04,-0.01,-0.02,-0.04
2022-02-17 5:46:44.1240 p.m.,-0.13,0.11,-0.04,0,-0.02,-0.04
2022-02-17 5:46:44.1340 p.m.,-0.12,0.13,-0.06,0,-0.01,-0.03
2022-02-17 5:46:44.1440 p.m.,-0.13,0.11,-0.06,0.02,0,-0.03
2022-02-17 5:46:44.1540 p.m.,-0.14,0.06,-0.01,0.02,0,-0.03
2022-02-17 5:46:44.1640 p.m.,-0.15,0.04,0.04,0.03,0,-0.03
2022-02-17 5:46:44.1740 p.m.,-0.12,0.03,0.09,0.03,0,-0.03
2022-02-17 5:46:44.1840 p.m.,-0.14,0,0.1,0.04,-0.01,-0.05
2022-02-17 5:46:44.1940 p.m.,-0.11,0.02,0.08,0.04,0,-0.05
2022-02-17 5:46:44.2040 p.m.,-0.09,0.07,-0.02,0.04,0.02,-0.05
2022-02-17 5:46:44.2140 p.m.,-0.11,0.11,-0.07,0.04,0.04,-0.05
2022-02-17 5:46:44.2240 p.m.,-0.11,0.15,-0.07,0.03,0.05,-0.04
2022-02-17 5:46:44.2340 p.m.,-0.13,0.17,-0.02,0.02,0.04,-0.04
2022-02-17 5:46:44.2440 p.m.,-0.19,0.13,0.09,0.02,0.02,-0.03
2022-02-17 5:46:44.2550 p.m.,-0.2,0.14,0.16,0.02,0.02,-0.03
2022-02-17 5:46:44.2630 p.m.,-0.2,0.13,0.16,0.04,-0.01,-0.01
2022-02-17 5:46:44.2730 p.m.,-0.2,0.16,0.14,0.04,-0.01,0
2022-02-17 5:46:44.2830 p.m.,-0.21,0.13,0.06,0.05,0.01,0
2022-02-17 5:46:44.2930 p.m.,-0.15,0.12,0.01,0.05,0.02,0.01
2022-02-17 5:46:44.3030 p.m.,-0.11,0.11,-0.02,0.05,0.02,0.01
2022-02-17 5:46:44.3130 p.m.,-0.1,0.1,0,0.04,0.01,0.02
2022-02-17 5:46:44.3230 p.m.,-0.09,0.09,0.04,0.04,0,0.02
2022-02-17 5:46:44.3330 p.m.,-0.09,0.08,0.06,0.04,-0.01,0.01
2022-02-17 5:46:44.3430 p.m.,-0.06,0.06,0.04,0.04,-0.01,0.01
2022-02-17 5:46:44.3540 p.m.,-0.03,0.05,0.01,0.05,0.01,0.01
2022-02-17 5:46:44.3630 p.m.,-0.01,0.06,-0.07,0.05,0.02,0.02
2022-02-17 5:46:44.3740 p.m.,0.02,0.07,-0.13,0.05,0.02,0.03
2022-02-17 5:46:44.3830 p.m.,0,0.1,-0.12,0.04,0.01,0.03
2022-02-17 5:46:44.3940 p.m.,0,0.1,-0.09,0,0,0.03
2022-02-17 5:46:44.4040 p.m.,0.02,0.08,-0.07,-0.03,-0.01,0.02
2022-02-17 5:46:44.4140 p.m.,0.05,0.06,-0.04,-0.06,-0.02,0.02
2022-02-17 5:46:44.4240 p.m.,0.06,0.06,-0.06,-0.06,-0.02,0.02
2022-02-17 5:46:44.4340 p.m.,0.07,0.08,-0.08,-0.03,-0.01,0.01
2022-02-17 5:46:44.4440 p.m.,0.08,0.07,-0.1,0.01,0.01,0
2022-02-17 5:46:44.4540 p.m.,0.06,0,-0.09,0.04,0.02,-0.01
2022-02-17 5:46:44.4640 p.m.,0.06,-0.06,-0.09,0.06,0.04,-0.02
2022-02-17 5:46:44.4740 p.m.,0.07,-0.04,-0.07,0.05,0.04,-0.02
2022-02-17 5:46:44.4840 p.m.,0.09,0.01,-0.05,0.02,0.02,-0.01
2022-02-17 5:46:44.4940 p.m.,0.06,0.02,0.06,0,0,-0.01
2022-02-17 5:46:44.5040 p.m.,0.05,0.05,0.15,-0.02,-0.03,-0.01
2022-02-17 5:46:44.5140 p.m.,0.06,0.08,0.19,-0.03,-0.04,-0.01
2022-02-17 5:46:44.5240 p.m.,0.04,0.04,0.18,-0.01,-0.03,-0.01
2022-02-17 5:46:44.5340 p.m.,0.06,0.02,0.14,0.01,-0.02,-0.01
2022-02-17 5:46:44.5440 p.m.,0.07,0,0.06,0.04,-0.01,-0.02
2022-02-17 5:46:44.5540 p.m.,0.06,-0.04,0.02,0.05,0,-0.03
2022-02-17 5:46:44.5640 p.m.,0.08,-0.06,0.02,0.04,-0.01,-0.04
2022-02-17 5:46:44.5740 p.m.,0.09,-0.04,0.02,0.02,-0.01,-0.04
2022-02-17 5:46:44.5840 p.m.,0.09,0,0.02,-0.02,-0.02,-0.03
2022-02-17 5:46:44.5940 p.m.,0.09,0.05,0.01,-0.05,-0.02,-0.02
2022-02-17 5:46:44.6040 p.m.,0.05,0.06,0.01,-0.06,-0.03,-0.02
2022-02-17 5:46:44.6140 p.m.,0.02,0.05,0.03,-0.04,-0.05,-0.04
2022-02-17 5:46:44.6250 p.m.,-0.01,-0.01,0.07,0,-0.05,-0.05
2022-02-17 5:46:44.6340 p.m.,-0.05,-0.08,0.07,0.05,-0.03,-0.06
2022-02-17 5:46:44.6440 p.m.,-0.05,-0.1,0,0.08,0,-0.06
2022-02-17 5:46:44.6550 p.m.,-0.04,-0.05,-0.1,0.09,0.03,-0.04
2022-02-17 5:46:44.6650 p.m.,-0.02,0.03,-0.18,0.07,0.03,-0.03
2022-02-17 5:46:44.6750 p.m.,-0.02,0.1,-0.19,0.04,0.01,-0.01
2022-02-17 5:46:44.6850 p.m.,-0.02,0.11,-0.11,-0.01,-0.03,-0.01
2022-02-17 5:46:44.6950 p.m.,-0.03,0.1,-0.03,-0.06,-0.06,-0.01
2022-02-17 5:46:44.7050 p.m.,-0.03,0.08,-0.01,-0.09,-0.08,0
2022-02-17 5:46:44.7150 p.m.,-0.02,0.08,-0.05,-0.09,-0.06,0.01
2022-02-17 5:46:44.7250 p.m.,-0.01,0.07,-0.13,-0.08,-0.03,0.02
2022-02-17 5:46:44.7350 p.m.,0.03,0.06,-0.21,-0.05,0.01,0.03
2022-02-17 5:46:44.7450 p.m.,0.05,0.02,-0.21,-0.04,0.02,0.02
2022-02-17 5:46:44.7550 p.m.,0.05,-0.05,-0.11,-0.03,0.01,0
2022-02-17 5:46:44.7650 p.m.,0.04,-0.11,0.04,-0.03,-0.01,-0.02
2022-02-17 5:46:44.7750 p.m.,0.04,-0.14,0.17,-0.04,-0.02,-0.03
2022-02-17 5:46:44.7850 p.m.,0.03,-0.14,0.24,-0.03,-0.03,-0.03
2022-02-17 5:46:44.7950 p.m.,0.03,-0.1,0.28,-0.02,-0.03,-0.03
2022-02-17 5:46:44.8050 p.m.,0.02,-0.06,0.25,-0.01,-0.03,-0.03
2022-02-17 5:46:44.8150 p.m.,0.03,-0.02,0.2,-0.01,-0.03,-0.04
2022-02-17 5:46:44.8250 p.m.,0.04,-0.02,0.19,-0.01,-0.03,-0.04
2022-02-17 5:46:44.8350 p.m.,0.03,-0.02,0.18,-0.01,-0.04,-0.05
2022-02-17 5:46:44.8450 p.m.,0.04,0,0.18,0,-0.03,-0.05
2022-02-17 5:46:44.8550 p.m.,0.01,0,0.14,0.01,-0.03,-0.05
2022-02-17 5:46:44.8650 p.m.,-0.01,0.01,0.09,0.02,-0.01,-0.04
2022-02-17 5:46:44.8750 p.m.,-0.03,0.06,0.04,0.03,0,-0.03
2022-02-17 5:46:44.8850 p.m.,-0.01,0.1,0.01,0.03,0,-0.04
2022-02-17 5:46:44.8960 p.m.,-0.02,0.08,0.02,0.02,-0.01,-0.04
2022-02-17 5:46:44.9060 p.m.,-0.02,0.06,0.03,0.01,-0.01,-0.04
2022-02-17 5:46:44.9160 p.m.,-0.03,0.05,0.02,-0.01,0,-0.04
2022-02-17 5:46:44.9260 p.m.,-0.03,0.06,0.02,-0.01,0,-0.03
2022-02-17 5:46:44.9360 p.m.,-0.05,0.1,-0.02,0,0,-0.02
2022-02-17 5:46:44.9400 p.m.,-0.12,0.05,0.06,0.02,0,-0.02
2022-02-17 5:46:44.9530 p.m.,-0.12,0.01,0.06,0.03,-0.01,-0.01
2022-02-17 5:46:44.9630 p.m.,-0.12,0.01,0.06,0.03,0,-0.01
2022-02-17 5:46:44.9730 p.m.,-0.1,-0.01,0.03,0.01,0.01,-0.01
2022-02-17 5:46:44.9830 p.m.,-0.08,-0.01,0,0.01,0.01,-0.01
2022-02-17 5:46:44.9930 p.m.,-0.05,0.01,-0.02,-0.02,0.02,-0.01
2022-02-17 5:46:45.0030 p.m.,-0.05,0.01,0.03,-0.02,0,-0.01
2022-02-17 5:46:45.0130 p.m.,-0.1,-0.01,0.18,0,-0.01,-0.01
2022-02-17 5:46:45.0230 p.m.,-0.1,-0.01,0.18,0.02,0,-0.01
2022-02-17 5:46:45.0330 p.m.,-0.09,-0.02,0.03,0.05,0.03,-0.01
2022-02-17 5:46:45.0430 p.m.,-0.04,0.02,-0.06,0.05,0.07,-0.01
2022-02-17 5:46:45.0530 p.m.,-0.04,0.02,-0.06,0.04,0.09,0
2022-02-17 5:46:45.0630 p.m.,-0.04,0.09,0.07,0.04,0.09,0
2022-02-17 5:46:45.0740 p.m.,-0.04,0.09,0.07,0.01,0.02,0.02
2022-02-17 5:46:45.0830 p.m.,-0.06,0.045258911,0.319369656,-0.01,-0.02,0.02
2022-02-17 5:46:45.0940 p.m.,-0.08,0.04,0.31,-0.01,-0.04,0.01
2022-02-17 5:46:45.1030 p.m.,-0.07,0.01,0.27,0.01,-0.02,0
2022-02-17 5:46:45.1130 p.m.,-0.03,-0.02,0.12,0.03,0.01,0
2022-02-17 5:46:45.1240 p.m.,0,0.01,-0.02,0.05,0.05,0.01
2022-02-17 5:46:45.1330 p.m.,0.02,0.1,-0.09,0.06,0.06,0.01
2022-02-17 5:46:45.1440 p.m.,0.02,0.1,-0.09,0.05,0.05,0.01
2022-02-17 5:46:45.1540 p.m.,0.02,0.12,-0.03,0.03,0.03,0.01
2022-02-17 5:46:45.1640 p.m.,-0.01,0.05,0.05,0.03,0.03,0.01
2022-02-17 5:46:45.1740 p.m.,-0.01,0.01,0.1,0,0,0
2022-02-17 5:46:45.1840 p.m.,0,0.02,0.06,0,0.02,0.01
2022-02-17 5:46:45.1940 p.m.,0,0.07,-0.07,0.01,0.03,0.02
2022-02-17 5:46:45.2030 p.m.,0,0.07,-0.07,0.02,0.05,0.03
2022-02-17 5:46:45.2130 p.m.,0,0.1,-0.1,0.02,0.07,0.03
2022-02-17 5:46:45.2230 p.m.,0.04,0.11,-0.08,0.01,0.08,0.02
2022-02-17 5:46:45.2330 p.m.,0.03,0.04,-0.01,-0.01,0.06,0.01
2022-02-17 5:46:45.2440 p.m.,-0.01,-0.02,0.19,-0.01,0.04,0
2022-02-17 5:46:45.2540 p.m.,-0.01,-0.06,0.24,-0.02,0.01,0
2022-02-17 5:46:45.2640 p.m.,-0.07,-0.08,0.23,0,-0.01,-0.01
2022-02-17 5:46:45.2740 p.m.,-0.07,-0.08,0.23,0.02,-0.01,-0.01
2022-02-17 5:46:45.2840 p.m.,-0.06,-0.07,0.13,0.05,0.01,-0.02
2022-02-17 5:46:45.2940 p.m.,-0.03,-0.05,0,0.07,0.04,-0.02
2022-02-17 5:46:45.3040 p.m.,0.04,0.03,-0.18,0.07,0.04,-0.02
2022-02-17 5:46:45.3140 p.m.,0.04,0.03,-0.18,0.07,0.08,-0.02
2022-02-17 5:46:45.3240 p.m.,0.06,0.08,-0.18,0.04,0.07,-0.01
2022-02-17 5:46:45.3350 p.m.,0.06,0.12,-0.11,0.01,0.05,0
2022-02-17 5:46:45.3440 p.m.,0,0.19,-0.02,-0.02,0.03,0.02
2022-02-17 5:46:45.3540 p.m.,0,0.19,-0.02,-0.04,0.01,0.04
2022-02-17 5:46:45.3640 p.m.,0,0.2,0.01,-0.04,0,0.04
2022-02-17 5:46:45.3740 p.m.,0,0.15,0.05,-0.03,0,0.04
2022-02-17 5:46:45.3850 p.m.,0.01,0.09,0.04,-0.02,0.01,0.03
2022-02-17 5:46:45.3950 p.m.,0.05,0.03,0.03,0,0.03,0.03
2022-02-17 5:46:45.4040 p.m.,0.07,0.01,0.01,0.02,0.04,0.03
2022-02-17 5:46:45.4150 p.m.,0.09,0,0.07,0.02,0.05,0.02
2022-02-17 5:46:45.4250 p.m.,0.09,0,0.07,0.01,0.04,0.02
2022-02-17 5:46:45.4350 p.m.,0.07,-0.02,0.14,0.01,0.01,0.01
2022-02-17 5:46:45.4450 p.m.,0.04,-0.04,0.22,0,0,0.01
2022-02-17 5:46:45.4550 p.m.,0.07,-0.01,0.18,-0.01,-0.01,0
2022-02-17 5:46:45.4650 p.m.,0.07,-0.01,0.18,-0.01,0,0
2022-02-17 5:46:45.4750 p.m.,0.07,-0.03,0.07,0.01,0.01,-0.01
2022-02-17 5:46:45.4850 p.m.,0.06,-0.04,0.05,0.02,0.01,-0.02
2022-02-17 5:46:45.4950 p.m.,0.04,-0.06,0.04,0.04,0.01,-0.03
2022-02-17 5:46:45.5050 p.m.,0.04,-0.06,0.04,0.04,0.01,-0.03
2022-02-17 5:46:45.5150 p.m.,0.04,-0.06,0.01,0.05,0.01,-0.04
2022-02-17 5:46:45.5250 p.m.,0.05,-0.02,-0.05,0.05,0.02,-0.04
2022-02-17 5:46:45.5350 p.m.,0.03,0.04,-0.1,0.02,0.04,-0.03
2022-02-17 5:46:45.5450 p.m.,0.04,0.1,-0.1,0,0.04,-0.03
2022-02-17 5:46:45.5550 p.m.,0.03,0.12,0,-0.02,0.03,-0.03
2022-02-17 5:46:45.5650 p.m.,0.03,0.12,0,-0.02,0.03,-0.03
2022-02-17 5:46:45.5760 p.m.,-0.02,0.08,0.06,-0.03,0.01,-0.03
2022-02-17 5:46:45.5850 p.m.,-0.02,0.07,0.05,-0.01,0.02,-0.02
2022-02-17 5:46:45.5960 p.m.,-0.04,0.07,0.05,0.01,0.03,-0.02
2022-02-17 5:46:45.6060 p.m.,-0.02,0.08,0.04,0.03,0.03,-0.01
2022-02-17 5:46:45.6160 p.m.,-0.04,0.04,0.06,0.03,0.03,-0.02
2022-02-17 5:46:45.6260 p.m.,-0.04,0.04,0.06,0.03,0.03,-0.02
2022-02-17 5:46:45.6360 p.m.,-0.03,0.05,0.08,0.01,0.01,-0.01
2022-02-17 5:46:45.6460 p.m.,-0.03,0.07,0.08,0,0,-0.01
2022-02-17 5:46:45.6560 p.m.,-0.03,0.07,0.08,-0.01,0,0
2022-02-17 5:46:45.6660 p.m.,-0.05,0.08,0.03,-0.01,0.01,0.01
2022-02-17 5:46:45.6760 p.m.,-0.02,0.12,0.02,-0.01,0.01,0.01
2022-02-17 5:46:45.6860 p.m.,-0.02,0.11,0.04,0.02,0.01,0
2022-02-17 5:46:45.6960 p.m.,-0.02,0.05,0.07,0.02,0.01,0
2022-02-17 5:46:45.7060 p.m.,-0.02,0.05,0.07,0.02,0.01,0
2022-02-17 5:46:45.7160 p.m.,-0.04,0.07,0.08,0.03,0,0
2022-02-17 5:46:45.7260 p.m.,-0.06,0.08,0.08,0.03,0,0
2022-02-17 5:46:45.7360 p.m.,-0.06,0.07,0.06,0.03,0,0
2022-02-17 5:46:45.7460 p.m.,-0.04,0.08,0.07,0.02,0,0
2022-02-17 5:46:45.7560 p.m.,-0.04,0.08,0.07,0.01,0,0
2022-02-17 5:46:45.7660 p.m.,-0.04,0.08,0.03,0,0.01,0
2022-02-17 5:46:45.7770 p.m.,-0.03,0.13,0,0,0.02,0.01
2022-02-17 5:46:45.7860 p.m.,-0.03,0.13,0,0.01,0.02,0
2022-02-17 5:46:45.7960 p.m.,-0.04,0.11,0.02,0.03,0.02,0
2022-02-17 5:46:45.8060 p.m.,-0.07,0.08,0.03,0.04,0.03,0
2022-02-17 5:46:45.8160 p.m.,-0.08,0.09,0.03,0.06,0.03,0
2022-02-17 5:46:45.8260 p.m.,-0.08,0.09,0.03,0.06,0.03,0.01
2022-02-17 5:46:45.8370 p.m.,-0.08,0.09,0.03,0.06,0.03,0.01
2022-02-17 5:46:45.8470 p.m.,-0.07,0.09,0.03,0.03,0.02,0.02
2022-02-17 5:46:45.8560 p.m.,-0.06,0.1,0.04,0.01,0,0.02
2022-02-17 5:46:45.8670 p.m.,-0.05949118,0.08,0.04,0,0,0.02
2022-02-17 5:46:45.8770 p.m.,-0.06,0.08,0.04,0,0.01,0.03
2022-02-17 5:46:45.8860 p.m.,-0.05,0.06,0.01,0.01,0.01,0.04
2022-02-17 5:46:45.8970 p.m.,-0.04,0.07,0.01,0.03,0.01,0.03
2022-02-17 5:46:45.9070 p.m.,-0.04,0.03,0.03,0.04,0.02,0.04
2022-02-17 5:46:45.9170 p.m.,-0.02,0.03,0.04,0.03,0.02,0.04
2022-02-17 5:46:45.9270 p.m.,0.050934949,0.03,0.01,0.01,0.02,0.04
2022-02-17 5:46:45.9370 p.m.,0.05,0.03,0.01,-0.02,0.02,0.03
2022-02-17 5:46:45.9470 p.m.,0.04,-0.01,0.03,-0.02,0.02,0.03
2022-02-17 5:46:45.9570 p.m.,0.01,-0.05,0.08,-0.02,-0.01,0.02
2022-02-17 5:46:45.9670 p.m.,-0.03,-0.07,0.13,0,-0.02,0.01
2022-02-17 5:46:45.9770 p.m.,-0.06,-0.08,0.14,0.03,-0.01,0.01
2022-02-17 5:46:45.9870 p.m.,-0.06,-0.09,0.12,0.06,0,0
2022-02-17 5:46:45.9970 p.m.,-0.03,-0.06,0.04,0.08,0.02,-0.01
2022-02-17 5:46:46.0070 p.m.,0.03,-0.01,-0.07,0.09,0.03,-0.01
2022-02-17 5:46:46.0170 p.m.,0.01,0.02,-0.12,0.07,0.04,-0.01
2022-02-17 5:46:46.0270 p.m.,0.01,0.02,-0.12,0.06,0.04,0
2022-02-17 5:46:46.0370 p.m.,0,0.08,-0.12,0.03,0.04,0.02
2022-02-17 5:46:46.0470 p.m.,-0.04,0.16,-0.08,-0.01,0.02,0.03
2022-02-17 5:46:46.0570 p.m.,-0.03,0.14,-0.02,-0.04,0,0.04
2022-02-17 5:46:46.0670 p.m.,-0.03,0.07,0.03,-0.05,-0.01,0.04
2022-02-17 5:46:46.0780 p.m.,-0.03,0.07,0.03,-0.05,-0.02,0.04
2022-02-17 5:46:46.0880 p.m.,0.03,-0.01,0.04,-0.02,-0.01,0.03
2022-02-17 5:46:46.0980 p.m.,0.03,-0.01,0.04,0,0.01,0.02
2022-02-17 5:46:46.1080 p.m.,0.03,-0.04,-0.01,0,0.01,0.02
2022-02-17 5:46:46.1180 p.m.,0.05,-0.04,-0.03,0.01,0.05,0.02
2022-02-17 5:46:46.1280 p.m.,0.06,0.01,0.02,0,0.04,0.02
2022-02-17 5:46:46.1380 p.m.,0.03,-0.07,0.21,-0.02,0.01,0.01
2022-02-17 5:46:46.1480 p.m.,0.03,-0.06,0.26,-0.02,-0.01,0
2022-02-17 5:46:46.1580 p.m.,0.03,-0.06,0.26,-0.01,-0.02,0
2022-02-17 5:46:46.1680 p.m.,0.01,-0.04,0.14,0.01,-0.01,-0.01
2022-02-17 5:46:46.1780 p.m.,0.01,-0.04,0.14,0.02,0,-0.01
2022-02-17 5:46:46.1880 p.m.,0.02,-0.05,0.03,0.03,0.02,-0.02
2022-02-17 5:46:46.1980 p.m.,0.01,-0.06,0.04,0.04,0.03,-0.03
2022-02-17 5:46:46.2080 p.m.,0.01,-0.06,0.04,0.04,0.02,-0.04
2022-02-17 5:46:46.2180 p.m.,-0.02,-0.01,0.07,0.04,0.02,-0.04
2022-02-17 5:46:46.2290 p.m.,-0.03,0.05,0.04,0.03,0.02,-0.03
2022-02-17 5:46:46.2380 p.m.,-0.03,0.05,0.04,0.03,0.02,-0.03
2022-02-17 5:46:46.2480 p.m.,-0.04,0.15,-0.01,0.01,0.02,-0.01
2022-02-17 5:46:46.2580 p.m.,-0.04,0.15,-0.01,-0.01,0.01,0
2022-02-17 5:46:46.2690 p.m.,-0.03,0.13,0,-0.03,0.01,0
2022-02-17 5:46:46.2780 p.m.,-0.04,0.08,0.04,-0.03,0.01,0
2022-02-17 5:46:46.2880 p.m.,-0.04,0.08,0.04,-0.01,0.01,0
2022-02-17 5:46:46.2980 p.m.,-0.04,0.07,0.05,0.02,0.01,0
2022-02-17 5:46:46.3090 p.m.,-0.05,0.06,0.05,0.04,0.02,0
2022-02-17 5:46:46.3190 p.m.,-0.04,0.03,0.04,0.05,0.02,0
2022-02-17 5:46:46.3280 p.m.,-0.02,0,0.04,0.05,0.02,0
2022-02-17 5:46:46.3390 p.m.,0,-0.01,0.01,0.03,0.03,-0.02
2022-02-17 5:46:46.3490 p.m.,0.04,0.04,-0.02,0.01,0.04,-0.01
2022-02-17 5:46:46.3600 p.m.,0.06,0.09,0.01,0,0.03,0
2022-02-17 5:46:46.3690 p.m.,0.06,0.09,0.01,0,0.02,0.01
2022-02-17 5:46:46.3790 p.m.,0.05,0.09,-0.01,0,0.02,0.01
2022-02-17 5:46:46.3890 p.m.,0.05,0.07,-0.01,-0.01,0.03,0.01
2022-02-17 5:46:46.3990 p.m.,0.09,0.02,-0.03,-0.01,0.03,0
2022-02-17 5:46:46.4090 p.m.,0.09,-0.04,-0.03,-0.01,0.04,0
2022-02-17 5:46:46.4190 p.m.,0.1,-0.02,-0.03,0.01,0.03,0.01
2022-02-17 5:46:46.4290 p.m.,0.1,0.02,0.06,0.02,0.02,0.01
2022-02-17 5:46:46.4390 p.m.,0.13,0.02,0.05,0.04,0.02,0
2022-02-17 5:46:46.4490 p.m.,0.16,0.02,-0.02,0.05,0.03,0
2022-02-17 5:46:46.4590 p.m.,0.16,0.02,-0.02,0.05,0.04,0.01
2022-02-17 5:46:46.4690 p.m.,0.19,0.06,-0.09,0,0.03,0.02
2022-02-17 5:46:46.4800 p.m.,0.21,0.11,-0.02,-0.04,0.04,0.04
2022-02-17 5:46:46.4900 p.m.,0.23,0.14,-0.03,-0.06,0.03,0.04
2022-02-17 5:46:46.4990 p.m.,0.23,0.14,-0.03,-0.06,0.01,0.04
2022-02-17 5:46:46.5090 p.m.,0.24,0.12,0.02,-0.05,0,0.04
2022-02-17 5:46:46.5200 p.m.,0.23,0.04,0.08,-0.02,0,0.03
2022-02-17 5:46:46.5300 p.m.,0.28,0,-0.02,0.01,0.02,0.03
2022-02-17 5:46:46.5400 p.m.,0.28,0,-0.02,0.02,0.02,0.03
2022-02-17 5:46:46.5490 p.m.,0.29,0.03,-0.02,0.02,0.04,0.02
2022-02-17 5:46:46.5600 p.m.,0.33,0.02,-0.04,0.02,0.06,0.02
2022-02-17 5:46:46.5690 p.m.,0.33,0.02,-0.04,0.01,0.07,0.01
2022-02-17 5:46:46.5800 p.m.,0.32,0.01,-0.02,0.02,0.07,0.01
2022-02-17 5:46:46.5900 p.m.,0.32,0.01,-0.02,0.02,0.07,0.01
2022-02-17 5:46:46.6000 p.m.,0.27,0.02,0.01,0.01,0.07,0.02
2022-02-17 5:46:46.6100 p.m.,0.24,0.07,0.03,0.01,0.06,0.04
2022-02-17 5:46:46.6200 p.m.,0.19,0.11,0.11,0,0.04,0.05
2022-02-17 5:46:46.6300 p.m.,0.19,0.11,0.11,0,0.02,0.06
2022-02-17 5:46:46.6400 p.m.,0.19,0.08,0.11,0,0.02,0.05
2022-02-17 5:46:46.6500 p.m.,0.21,0.03,0.04,0,0.04,0.05
2022-02-17 5:46:46.6600 p.m.,0.22,0,-0.08,0.02,0.07,0.06
2022-02-17 5:46:46.6700 p.m.,0.26,0.04,-0.22,0.01,0.12,0.08
2022-02-17 5:46:46.6800 p.m.,0.32,0.13,-0.31,-0.01,0.14,0.09
2022-02-17 5:46:46.6890 p.m.,0.33,0.08,-0.18,-0.07,0.15,0.09
2022-02-17 5:46:46.6980 p.m.,0.3,-0.02,0.02,-0.12,0.11,0.08
2022-02-17 5:46:46.7090 p.m.,0.3,-0.02,0.02,-0.13,0.07,0.07
2022-02-17 5:46:46.7180 p.m.,0.25,-0.08,0.21,-0.11,0.04,0.05
2022-02-17 5:46:46.7280 p.m.,0.17,-0.14,0.27,-0.07,0.05,0.04
2022-02-17 5:46:46.7380 p.m.,0.13,-0.15,0.19,0,0.09,0.04
2022-02-17 5:46:46.7480 p.m.,0.15,-0.06,-0.09,0.05,0.14,0.03
2022-02-17 5:46:46.7610 p.m.,0.15,-0.06,-0.09,0.08,0.17,0.03
2022-02-17 5:46:46.7710 p.m.,0.17,0.02,-0.16,0.07,0.17,0.03
2022-02-17 5:46:46.7810 p.m.,0.17,0.17,-0.04,0.04,0.15,0.04
2022-02-17 5:46:46.7910 p.m.,0.17,0.17,-0.04,0,0.12,0.05
2022-02-17 5:46:46.8010 p.m.,0.14,0.27,0.02,-0.03,0.09,0.07
2022-02-17 5:46:46.8110 p.m.,0.14,0.27,0.02,-0.05,0.08,0.08
2022-02-17 5:46:46.8210 p.m.,0.14,0.26,-0.14,-0.05,0.1,0.1
2022-02-17 5:46:46.8310 p.m.,0.201519317,0.24,-0.18,-0.05,0.12,0.11
2022-02-17 5:46:46.8410 p.m.,0.22,0.22,-0.18,-0.04,0.14,0.11
2022-02-17 5:46:46.8510 p.m.,0.22,0.22,-0.18,-0.03,0.14,0.11
2022-02-17 5:46:46.8610 p.m.,0.2,0.16,-0.1,-0.02,0.14,0.1
2022-02-17 5:46:46.8710 p.m.,0.19,0.13,0.02,-0.02,0.13,0.1
2022-02-17 5:46:46.8820 p.m.,0.19,0.13,0.02,-0.02,0.13,0.1
2022-02-17 5:46:46.8910 p.m.,0.12,0.17,0.05,-0.02,0.12,0.1
2022-02-17 5:46:46.9020 p.m.,0.12,0.17,0.05,-0.02,0.11,0.11
2022-02-17 5:46:46.9110 p.m.,0.1,0.2,0.07,-0.02,0.08,0.12
2022-02-17 5:46:46.9210 p.m.,0.09,0.25,0.11,-0.03,0.06,0.12
2022-02-17 5:46:46.9310 p.m.,0.107400268,0.19,0.06,-0.03,0.05,0.12
2022-02-17 5:46:46.9410 p.m.,0.13,0.17,-0.03,-0.03,0.06,0.11
2022-02-17 5:46:46.9510 p.m.,0.13,0.17,-0.03,-0.02,0.09,0.1
2022-02-17 5:46:46.9610 p.m.,0.17,0.23,-0.19,-0.02,0.12,0.1
2022-02-17 5:46:46.9720 p.m.,0.17,0.23,-0.19,-0.03,0.13,0.11
2022-02-17 5:46:46.9810 p.m.,0.14,0.28,-0.07,-0.03,0.11,0.12
2022-02-17 5:46:46.9910 p.m.,0.14,0.28,-0.07,-0.05,0.08,0.13
2022-02-17 5:46:47.0010 p.m.,0.091096842,0.2,0.1,-0.07,0.07,0.13
2022-02-17 5:46:47.0120 p.m.,0.09,0.2,0.1,-0.09,0.05,0.14
2022-02-17 5:46:47.0220 p.m.,0.11,0.19,0.06,-0.12,0.04,0.15
2022-02-17 5:46:47.0310 p.m.,0.1,0.22,0.05,-0.12,0.04,0.15
2022-02-17 5:46:47.0420 p.m.,0.08020041,0.13,0.1,-0.11,0.05,0.14
2022-02-17 5:46:47.0520 p.m.,0.08,0.13,0.1,-0.07,0.05,0.12
2022-02-17 5:46:47.0620 p.m.,0.03,0.06,0.09,-0.02,0.06,0.12
2022-02-17 5:46:47.0720 p.m.,-0.01,0.02,0.09,0.03,0.07,0.12
2022-02-17 5:46:47.0820 p.m.,-0.03,0.05,0.03,0.06,0.08,0.12
2022-02-17 5:46:47.0920 p.m.,-0.02,0.07,-0.06,0.06,0.08,0.12
2022-02-17 5:46:47.1020 p.m.,-0.02,0.07,-0.06,0.04,0.08,0.11
2022-02-17 5:46:47.1120 p.m.,-0.01,0.06,-0.12,0.02,0.06,0.11
2022-02-17 5:46:47.1220 p.m.,0.02,0.08,-0.12,0.01,0.04,0.11
2022-02-17 5:46:47.1320 p.m.,0,0.11,-0.1,0,0.01,0.1
2022-02-17 5:46:47.1420 p.m.,-0.09,0.06,-0.15,0,0.03,0.1
2022-02-17 5:46:47.1520 p.m.,-0.05,0.14,-0.26,0.01,0.05,0.11
2022-02-17 5:46:47.1620 p.m.,-0.05,0.14,-0.26,0.01,0.05,0.11
2022-02-17 5:46:47.1720 p.m.,-0.1,0.15,-0.2,-0.01,0.07,0.12
2022-02-17 5:46:47.1820 p.m.,-0.11,0.15,-0.12,-0.02,0.05,0.12
2022-02-17 5:46:47.1920 p.m.,-0.11,0.15,-0.12,-0.03,0.03,0.11
2022-02-17 5:46:47.2020 p.m.,-0.15,0.15,-0.06,-0.03,0.01,0.11
2022-02-17 5:46:47.2120 p.m.,-0.17,0.13,-0.04,-0.01,0.01,0.11
2022-02-17 5:46:47.2230 p.m.,-0.2,0.14,-0.09,0,0.03,0.12
2022-02-17 5:46:47.2330 p.m.,-0.16,0.18,-0.16,0.01,0.05,0.11
2022-02-17 5:46:47.2420 p.m.,-0.15,0.19,-0.21,0.02,0.05,0.1
2022-02-17 5:46:47.2530 p.m.,-0.17,0.13,-0.16,0.03,0.06,0.09
2022-02-17 5:46:47.2630 p.m.,-0.17,0.13,-0.16,0.03,0.05,0.08
2022-02-17 5:46:47.2730 p.m.,-0.21,0.17,-0.1,0.02,0.04,0.09
2022-02-17 5:46:47.2830 p.m.,-0.26,0.22,-0.11,0.01,0.05,0.1
2022-02-17 5:46:47.2930 p.m.,-0.26,0.22,-0.11,-0.02,0.05,0.1
2022-02-17 5:46:47.3030 p.m.,-0.23,0.27,-0.11,-0.03,0.05,0.1
2022-02-17 5:46:47.3130 p.m.,-0.3,0.2,0,-0.03,0.06,0.09
2022-02-17 5:46:47.3230 p.m.,-0.3,0.2,0,-0.03,0.06,0.1
2022-02-17 5:46:47.3330 p.m.,-0.39,0.27,0.09,-0.01,0.07,0.11
2022-02-17 5:46:47.3430 p.m.,-0.46,0.26,0.15,-0.01,0.08,0.12
2022-02-17 5:46:47.3540 p.m.,-0.53,0.24,0.2,-0.01,0.08,0.12
2022-02-17 5:46:47.3630 p.m.,-0.53,0.24,0.2,-0.02,0.07,0.13
2022-02-17 5:46:47.3730 p.m.,-0.64,0.14,0.33,-0.01,0.04,0.13
2022-02-17 5:46:47.3830 p.m.,-0.71,0.09,0.33,-0.01,0.02,0.13
2022-02-17 5:46:47.3930 p.m.,-0.71,0.09,0.33,0.02,0.01,0.12
2022-02-17 5:46:47.4030 p.m.,-0.77,0.1,0.23,0.05,0.02,0.12
2022-02-17 5:46:47.4130 p.m.,-0.8,0.15,0.06,0.08,0.05,0.12
2022-02-17 5:46:47.4230 p.m.,-0.92,0.3,-0.3,0.1,0.09,0.14
2022-02-17 5:46:47.4340 p.m.,-0.93,0.44,-0.43,0.09,0.13,0.17
2022-02-17 5:46:47.4440 p.m.,-0.93,0.44,-0.43,0.05,0.13,0.19
2022-02-17 5:46:47.4530 p.m.,-0.96,0.5,-0.43,-0.01,0.12,0.2
2022-02-17 5:46:47.4640 p.m.,-0.93,0.49,-0.37,-0.08,0.1,0.21
2022-02-17 5:46:47.4730 p.m.,-0.926978101,0.47,-0.32,-0.11,0.07,0.21
2022-02-17 5:46:47.4840 p.m.,-0.97,0.51,-0.36,-0.12,0.08,0.22
2022-02-17 5:46:47.4940 p.m.,-0.93,0.62,-0.51,-0.09,0.13,0.23
2022-02-17 5:46:47.5040 p.m.,-0.93,0.62,-0.51,-0.07,0.18,0.24
2022-02-17 5:46:47.5140 p.m.,-0.87,0.74,-0.64,-0.06,0.23,0.25
2022-02-17 5:46:47.5240 p.m.,-0.78,0.94,-0.68,-0.07,0.27,0.26
2022-02-17 5:46:47.5340 p.m.,-0.78,0.94,-0.68,-0.09,0.29,0.29
2022-02-17 5:46:47.5440 p.m.,-0.7,1.08,-0.62,-0.14,0.27,0.32
2022-02-17 5:46:47.5540 p.m.,-0.62,1.26,-0.32,-0.18,0.23,0.34
2022-02-17 5:46:47.5640 p.m.,-0.58,1.25,-0.22,-0.19,0.18,0.36
2022-02-17 5:46:47.5740 p.m.,-0.58,1.25,-0.22,-0.19,0.18,0.36
2022-02-17 5:46:47.5850 p.m.,-0.53,1.2,-0.23,-0.16,0.14,0.36
2022-02-17 5:46:47.5940 p.m.,-0.47,1.16,-0.33,-0.16,0.14,0.36
2022-02-17 5:46:47.6040 p.m.,-0.39,1.17,-0.49,-0.06,0.21,0.36
2022-02-17 5:46:47.6140 p.m.,-0.35,1.17,-0.63,-0.02,0.24,0.37
2022-02-17 5:46:47.6240 p.m.,-0.33,1.18,-0.7,0.01,0.25,0.37
2022-02-17 5:46:47.6340 p.m.,-0.32,1.22,-0.67,0.01,0.22,0.38
2022-02-17 5:46:47.6440 p.m.,-0.37,1.22,-0.54,0,0.19,0.39
2022-02-17 5:46:47.6550 p.m.,-0.37,1.22,-0.54,-0.03,0.16,0.4
2022-02-17 5:46:47.6640 p.m.,-0.39,1.2,-0.58,-0.04,0.13,0.39
2022-02-17 5:46:47.6740 p.m.,-0.37,1.06,-0.76,-0.05,0.12,0.37
2022-02-17 5:46:47.6840 p.m.,-0.37,0.976271883,-0.85648787,-0.04,0.13,0.36
2022-02-17 5:46:47.6950 p.m.,-0.37,0.99,-0.95,-0.04,0.15,0.36
2022-02-17 5:46:47.7050 p.m.,-0.37,0.99,-0.95,-0.04,0.15,0.36
2022-02-17 5:46:47.7150 p.m.,-0.34,1.05,-1.01,-0.02,0.18,0.34
2022-02-17 5:46:47.7250 p.m.,-0.36,1.04,-0.97,-0.01,0.17,0.33
2022-02-17 5:46:47.7310 p.m.,-0.35,1.06,-0.88,0,0.17,0.31
2022-02-17 5:46:47.7440 p.m.,-0.33,1.12,-0.88,0.01,0.15,0.3
2022-02-17 5:46:47.7550 p.m.,-0.32,1.16,-0.92,0.02,0.16,0.29
2022-02-17 5:46:47.7650 p.m.,-0.32,1.16,-0.92,0.03,0.17,0.26
2022-02-17 5:46:47.7750 p.m.,-0.25,1.27,-1.03,0.03,0.18,0.24
2022-02-17 5:46:47.7850 p.m.,-0.25,1.27,-1.03,0.03,0.18,0.24
2022-02-17 5:46:47.7950 p.m.,-0.21,1.35,-1,0.02,0.17,0.24
2022-02-17 5:46:47.8050 p.m.,-0.16,1.46,-0.93,0.02,0.17,0.24
2022-02-17 5:46:47.8150 p.m.,-0.1,1.58,-0.81,-0.01,0.13,0.24
2022-02-17 5:46:47.8250 p.m.,-0.08,1.57,-0.71,-0.01,0.09,0.23
2022-02-17 5:46:47.8350 p.m.,-0.08,1.57,-0.71,0.02,0.06,0.22
2022-02-17 5:46:47.8450 p.m.,-0.08,1.54,-0.65,0.05,0.04,0.22
2022-02-17 5:46:47.8550 p.m.,-0.06,1.53,-0.63,0.06,0.03,0.22
2022-02-17 5:46:47.8650 p.m.,-0.03,1.55,-0.6,0.07,0.03,0.23
2022-02-17 5:46:47.8750 p.m.,0.02,1.55,-0.5,0.08,0.03,0.24
2022-02-17 5:46:47.8850 p.m.,0.02,1.55,-0.5,0.09,0.02,0.26
2022-02-17 5:46:47.8950 p.m.,0.04,1.56,-0.36,0.09,0,0.25
2022-02-17 5:46:47.9050 p.m.,0.05,1.5,-0.17,0.09,0,0.25
2022-02-17 5:46:47.9160 p.m.,0,1.36,0.4,0.11,-0.08,0.24
2022-02-17 5:46:47.9250 p.m.,0,1.26,0.72,0.15,-0.12,0.24
2022-02-17 5:46:47.9350 p.m.,-0.14,1.26,0.72,0.18,-0.2,0.24
2022-02-17 5:46:47.9440 p.m.,-0.2,1.23,0.98,0.21,-0.29,0.27
2022-02-17 5:46:47.9550 p.m.,-0.4,1.15,1.36,0.28,-0.35,0.28
2022-02-17 5:46:47.9640 p.m.,-0.42,1.18,1.56,0.38,-0.42,0.29
2022-02-17 5:46:47.9750 p.m.,-0.3,1,1.56,0.49,-0.43,0.27
2022-02-17 5:46:47.9860 p.m.,-0.3,1,1.56,0.62,-0.4,0.23
2022-02-17 5:46:47.9960 p.m.,-0.21,0.96,1.36,0.73,-0.34,0.21
2022-02-17 5:46:48.0060 p.m.,-0.23,1.01,1.14,0.81,-0.24,0.21
2022-02-17 5:46:48.0160 p.m.,-0.14,1.29,0.88,0.81,-0.24,0.21
2022-02-17 5:46:48.0260 p.m.,-0.03,1.54,0.66,0.8,0.13,0.26
2022-02-17 5:46:48.0360 p.m.,-0.16,1.7,0.32,0.63,0.4,0.31
2022-02-17 5:46:48.0460 p.m.,-0.16,1.7,0.32,0.36,0.64,0.39
2022-02-17 5:46:48.0560 p.m.,-0.37,1.7,0.66,0.36,0.64,0.39
2022-02-17 5:46:48.0660 p.m.,-0.72,1.59,1.4,-0.17,0.59,0.57
2022-02-17 5:46:48.0760 p.m.,-1.75,0.94,3.13,-0.27,0.31,0.64
2022-02-17 5:46:48.0860 p.m.,-1.75,0.94,3.13,-0.26,-0.06,0.69
2022-02-17 5:46:48.0960 p.m.,-2.23,-0.06,3.42,-0.11,-0.43,0.71
2022-02-17 5:46:48.1060 p.m.,-2.23,-0.06,3.42,0.08,-0.62,0.71
2022-02-17 5:46:48.1160 p.m.,-2.25,-0.45,2.78,0.26,-0.61,0.7
2022-02-17 5:46:48.1260 p.m.,-1.91,-0.55,1.6,0.43,-0.46,0.68
2022-02-17 5:46:48.1360 p.m.,-1.49,-0.58,0.34,0.55,-0.2,0.66
2022-02-17 5:46:48.1460 p.m.,-0.86,-0.47,-1.12,0.62,0.09,0.63
2022-02-17 5:46:48.1560 p.m.,-0.65,-0.52,-1.23,0.64,0.27,0.6
2022-02-17 5:46:48.1670 p.m.,-0.65,-0.78,-0.93,0.65,0.33,0.57
2022-02-17 5:46:48.1770 p.m.,-0.74,-0.94,-0.6,0.64,0.31,0.56
2022-02-17 5:46:48.1860 p.m.,-0.74,-0.94,-0.6,0.6,0.24,0.56
2022-02-17 5:46:48.1970 p.m.,-0.69,-0.94,-0.41,0.54,0.19,0.57
2022-02-17 5:46:48.2070 p.m.,-0.45,-0.93,-0.46,0.48,0.2,0.6
2022-02-17 5:46:48.2160 p.m.,-0.45,-0.93,-0.46,0.39,0.32,0.64
2022-02-17 5:46:48.2270 p.m.,-0.27,-0.91,-0.76,0.32,0.49,0.68
2022-02-17 5:46:48.2370 p.m.,-0.04,-0.79,-0.99,0.24,0.65,0.7
2022-02-17 5:46:48.2460 p.m.,-0.05,-1.06,-0.75,0.24,0.65,0.7
2022-02-17 5:46:48.2600 p.m.,-0.02,-1.06,-0.76,0.09,0.73,0.7
2022-02-17 5:46:48.2700 p.m.,-0.11,-1.24,-0.22,0.03,0.65,0.7
2022-02-17 5:46:48.2800 p.m.,-0.29,-1.39,0.27,-0.02,0.53,0.71
2022-02-17 5:46:48.2900 p.m.,-0.4,-1.48,0.64,-0.08,0.43,0.73
2022-02-17 5:46:48.3000 p.m.,-0.43,-1.51,0.81,-0.13,0.35,0.75
2022-02-17 5:46:48.3100 p.m.,-0.44,-1.5,0.81,-0.15,0.3,0.77
2022-02-17 5:46:48.3200 p.m.,-0.37,-1.43,0.65,-0.17,0.27,0.77
2022-02-17 5:46:48.3300 p.m.,-0.32,-1.33,0.36,-0.16,0.26,0.76
2022-02-17 5:46:48.3400 p.m.,-0.25,-1.29,0.11,-0.12,0.27,0.73
2022-02-17 5:46:48.3500 p.m.,-0.22,-1.26,-0.21,-0.07,0.27,0.7
2022-02-17 5:46:48.3600 p.m.,-0.14,-1.12,-0.52,-0.03,0.29,0.68
2022-02-17 5:46:48.3710 p.m.,-0.05,-0.98,-0.79,-0.03,0.34,0.67
2022-02-17 5:46:48.3800 p.m.,-0.02,-0.82,-1.06,-0.07,0.39,0.68
2022-02-17 5:46:48.3900 p.m.,0.04,-0.59,-1.25,-0.11,0.4,0.68
2022-02-17 5:46:48.4000 p.m.,0.06,-0.38,-1.26,-0.14,0.36,0.68
2022-02-17 5:46:48.4100 p.m.,-0.02,-0.29,-1.05,-0.17,0.31,0.68
2022-02-17 5:46:48.4200 p.m.,-0.08,-0.23,-0.9,-0.2,0.28,0.7
2022-02-17 5:46:48.4300 p.m.,-0.1,-0.1,-0.89,-0.2,0.26,0.69
2022-02-17 5:46:48.4410 p.m.,-0.11,-0.02,-0.91,-0.2,0.28,0.69
2022-02-17 5:46:48.4510 p.m.,-0.14,0.01,-1,-0.2,0.32,0.69
2022-02-17 5:46:48.4610 p.m.,-0.16,0.08,-1.06,-0.2,0.37,0.69
2022-02-17 5:46:48.4710 p.m.,-0.2,0.23,-1.08,-0.17,0.4,0.7
2022-02-17 5:46:48.4810 p.m.,-0.26,0.34,-1.03,-0.13,0.41,0.71
2022-02-17 5:46:48.4910 p.m.,-0.39,0.39,-0.89,-0.09,0.4,0.72
2022-02-17 5:46:48.5010 p.m.,-0.47,0.43,-0.76,-0.04,0.37,0.73
2022-02-17 5:46:48.5110 p.m.,-0.54,0.48,-0.68,-0.01,0.34,0.75
2022-02-17 5:46:48.5210 p.m.,-0.65,0.48,-0.66,0.01,0.31,0.78
2022-02-17 5:46:48.5310 p.m.,-0.61,0.55,-0.63,0.02,0.3,0.8
2022-02-17 5:46:48.5410 p.m.,-0.55,0.65,-0.7,0.05,0.29,0.82
2022-02-17 5:46:48.5510 p.m.,-0.46,0.71,-0.76,0.05,0.31,0.85
2022-02-17 5:46:48.5610 p.m.,-0.35,0.7,-0.85,0.05,0.36,0.88
2022-02-17 5:46:48.5710 p.m.,-0.24,0.77,-0.96,0.02,0.42,0.91
2022-02-17 5:46:48.5810 p.m.,-0.08,0.84,-1.01,0.02,0.42,0.91
2022-02-17 5:46:48.5910 p.m.,-0.05,0.77,-0.86,-0.04,0.51,0.95
2022-02-17 5:46:48.6010 p.m.,-0.05,0.63,-0.57,-0.06,0.49,0.96
2022-02-17 5:46:48.6110 p.m.,-0.09,0.52,-0.14,-0.05,0.44,0.98
2022-02-17 5:46:48.6220 p.m.,-0.21,0.31,0.4,0,0.36,0.99
2022-02-17 5:46:48.6310 p.m.,-0.27,0.14,0.86,0.07,0.29,0.99
2022-02-17 5:46:48.6410 p.m.,-0.23,-0.02,1.12,0.07,0.29,0.99
2022-02-17 5:46:48.6510 p.m.,-0.15,-0.15,1.2,0.2,0.24,0.96
2022-02-17 5:46:48.6620 p.m.,0.02,-0.18,1.11,0.23,0.3,0.94
2022-02-17 5:46:48.6710 p.m.,0.15,-0.17,0.96,0.23,0.37,0.91
2022-02-17 5:46:48.6820 p.m.,0.24,-0.13,0.95,0.24,0.42,0.86
2022-02-17 5:46:48.6920 p.m.,0.21,-0.09,1.14,0.25,0.44,0.8
2022-02-17 5:46:48.7020 p.m.,0.07,-0.05,1.44,0.24,0.46,0.75
2022-02-17 5:46:48.7120 p.m.,-0.01,0.06,1.77,0.22,0.47,0.71
2022-02-17 5:46:48.7220 p.m.,-0.21,0.17,2.04,0.19,0.49,0.73
2022-02-17 5:46:48.7320 p.m.,-0.53,0.34,2.24,0.18,0.54,0.78
2022-02-17 5:46:48.7420 p.m.,-0.78,0.69,2.27,0.15,0.56,0.86
2022-02-17 5:46:48.7520 p.m.,-0.97,0.99,2.25,0.11,0.58,0.96
2022-02-17 5:46:48.7620 p.m.,-1.21,1.06,2.25,0.06,0.59,1.06
2022-02-17 5:46:48.7720 p.m.,-1.31,1.11,2.08,-0.02,0.58,1.14
2022-02-17 5:46:48.7820 p.m.,-1.29,1.01,1.78,-0.11,0.57,1.18
2022-02-17 5:46:48.7920 p.m.,-1.21,0.73,1.49,-0.2,0.57,1.21
2022-02-17 5:46:48.8020 p.m.,-1.07,0.49,1.13,-0.32,0.6,1.25
2022-02-17 5:46:48.8120 p.m.,-0.93,0.4,0.75,-0.32,0.6,1.25
2022-02-17 5:46:48.8220 p.m.,-0.8,0.3,0.47,-0.53,0.71,1.28
2022-02-17 5:46:48.8320 p.m.,-0.82,0.11,0.37,-0.54,0.72,1.29
2022-02-17 5:46:48.8420 p.m.,-1.02,-0.13,0.49,-0.42,0.64,1.3
2022-02-17 5:46:48.8520 p.m.,-1.17,-0.38,0.81,-0.2,0.46,1.25
2022-02-17 5:46:48.8620 p.m.,-1.52,-0.79,1.27,0.06,0.27,1.2
2022-02-17 5:46:48.8720 p.m.,-1.8,-1.16,1.48,0.35,0.13,1.16
2022-02-17 5:46:48.8820 p.m.,-1.85,-1.22,1.39,0.59,0.14,1.14
2022-02-17 5:46:48.8920 p.m.,-1.87,-1.15,0.79,0.76,0.28,1.14
2022-02-17 5:46:48.9030 p.m.,-1.68,-0.86,0.01,0.82,0.48,1.15
2022-02-17 5:46:48.9130 p.m.,-1.49,-0.51,-0.63,0.8,0.65,1.2
2022-02-17 5:46:48.9230 p.m.,-1.43,-0.24,-0.96,0.68,0.75,1.26
2022-02-17 5:46:48.9330 p.m.,-1.43,0.01,-0.93,0.5,0.75,1.34
2022-02-17 5:46:48.9430 p.m.,-1.51,0.16,-0.65,0.29,0.67,1.42
2022-02-17 5:46:48.9460 p.m.,-1.67,0.15,-0.08,0.08,0.53,1.5
2022-02-17 5:46:48.9600 p.m.,-1.65,0.01,0.05,-0.11,0.41,1.55
2022-02-17 5:46:48.9700 p.m.,-1.65,0.01,0.05,-0.25,0.35,1.58
2022-02-17 5:46:48.9800 p.m.,-1.63,-0.24,0,-0.34,0.39,1.6
2022-02-17 5:46:48.9900 p.m.,-1.59,-0.45,-0.28,-0.36,0.43,1.59
2022-02-17 5:46:49.0000 p.m.,-1.42,-0.56,-0.51,-0.35,0.42,1.55
2022-02-17 5:46:49.0100 p.m.,-1.39,-0.69,-0.5,-0.31,0.39,1.5
2022-02-17 5:46:49.0200 p.m.,-1.26,-0.85,-0.37,-0.23,0.33,1.43
2022-02-17 5:46:49.0300 p.m.,-1.13,-0.82,-0.51,-0.1,0.27,1.36
2022-02-17 5:46:49.0400 p.m.,-1,-0.8,-0.71,0.06,0.23,1.27
2022-02-17 5:46:49.0500 p.m.,-1,-0.8,-0.71,0.21,0.26,1.2
2022-02-17 5:46:49.0600 p.m.,-0.88,-0.66,-1.1,0.3,0.39,1.15
2022-02-17 5:46:49.0700 p.m.,-0.67,-0.152261788,-1.93,0.34,0.54,1.12
2022-02-17 5:46:49.0810 p.m.,-0.5,-0.16,-1.93,0.34,0.54,1.12
2022-02-17 5:46:49.0900 p.m.,-0.39,0.14,-2.03,0.24,0.69,1.12
2022-02-17 5:46:49.1000 p.m.,-0.38,0.39,-1.8,0.14,0.63,1.13
2022-02-17 5:46:49.1100 p.m.,-0.41,0.56,-1.44,0.05,0.51,1.12
2022-02-17 5:46:49.1200 p.m.,-0.45,0.6,-1.08,-0.03,0.37,1.1
2022-02-17 5:46:49.1300 p.m.,-0.46,0.55,-0.83,-0.06,0.26,1.09
2022-02-17 5:46:49.1410 p.m.,-0.43,0.55,-0.67,-0.06,0.26,1.09
2022-02-17 5:46:49.1500 p.m.,-0.39,0.61,-0.76,-0.03,0.23,1.05
2022-02-17 5:46:49.1610 p.m.,-0.27,0.55,-1.19,-0.02,0.3,1.01
2022-02-17 5:46:49.1710 p.m.,-0.27,0.55,-1.19,-0.02,0.42,0.98
2022-02-17 5:46:49.1810 p.m.,-0.26,0.67,-1.32,-0.02,0.51,0.93
2022-02-17 5:46:49.1910 p.m.,-0.26,0.67,-1.32,-0.03,0.53,0.89
2022-02-17 5:46:49.2000 p.m.,-0.34,0.75,-1.11,-0.03,0.47,0.83
2022-02-17 5:46:49.2110 p.m.,-0.55,0.81,-0.35,-0.03,0.34,0.79
2022-02-17 5:46:49.2210 p.m.,-0.55,0.81,-0.35,0,0.21,0.76
2022-02-17 5:46:49.2300 p.m.,-0.66,0.92,-0.18,0.05,0.11,0.73
2022-02-17 5:46:49.2400 p.m.,-0.66,0.92,-0.18,0.09,0.09,0.7
2022-02-17 5:46:49.2510 p.m.,-0.61,0.95,-0.41,0.09,0.09,0.7
2022-02-17 5:46:49.2610 p.m.,-0.32,1.11,-1.03,0.16,0.22,0.64
2022-02-17 5:46:49.2710 p.m.,-0.15,1.2,-1.14,0.14,0.29,0.61
2022-02-17 5:46:49.2810 p.m.,-0.15,1.2,-1.14,0.11,0.31,0.57
2022-02-17 5:46:49.2910 p.m.,-0.14,1.06,-0.58,0.07,0.28,0.53
2022-02-17 5:46:49.3010 p.m.,-0.14,1.06,-0.58,0.07,0.21,0.5
2022-02-17 5:46:49.3120 p.m.,-0.15,0.96,-0.2,0.079695895,0.16,0.47
2022-02-17 5:46:49.3210 p.m.,-0.15,0.95,0.03,0.1,0.13,0.44
2022-02-17 5:46:49.3310 p.m.,-0.09,0.97,0.25,0.13,0.13,0.4
2022-02-17 5:46:49.3410 p.m.,-0.08,0.95,0.51,0.13,0.19,0.37
2022-02-17 5:46:49.3510 p.m.,-0.13,0.9,0.73,0.13,0.19,0.37
2022-02-17 5:46:49.3630 p.m.,-0.14,0.93,1.06,0.18,0.24,0.33
2022-02-17 5:46:49.3710 p.m.,-0.23,0.94,1.61,0.26,0.14,0.3
2022-02-17 5:46:49.3810 p.m.,-0.3,0.95,2.27,0.37,0.01,0.31
2022-02-17 5:46:49.3920 p.m.,-0.28,1.06,2.72,0.46,-0.12,0.34
2022-02-17 5:46:49.4010 p.m.,-0.14,1.29,2.86,0.46,-0.16,0.37
2022-02-17 5:46:49.4120 p.m.,0.5,1.57,2.41,0.38,-0.13,0.39
2022-02-17 5:46:49.4220 p.m.,0.5,1.57,2.41,0.25,-0.03,0.4
2022-02-17 5:46:49.4320 p.m.,0.77,1.58,2.1,0.09,0.14,0.4
2022-02-17 5:46:49.4420 p.m.,0.76,1.45,1.87,-0.1,0.31,0.37
2022-02-17 5:46:49.4520 p.m.,0.28,0.71,1.99,-0.26,0.41,0.33
2022-02-17 5:46:49.4620 p.m.,-0.25,0.2,2.31,-0.34,0.42,0.33
2022-02-17 5:46:49.4720 p.m.,-0.717955198,-0.11,2.7,-0.3,0.31,0.35
2022-02-17 5:46:49.4820 p.m.,-0.72,-0.11,2.7,-0.3,0.31,0.35
2022-02-17 5:46:49.4920 p.m.,-1.376715816,-0.9,2.76,-0.02,-0.16,0.4
2022-02-17 5:46:49.5020 p.m.,-1.35,-1.15,2.43,0.1,-0.38,0.4
2022-02-17 5:46:49.5120 p.m.,-1.35,-1.15,2.43,0.16,-0.5,0.36
2022-02-17 5:46:49.5220 p.m.,-0.78,-1.38,0.67,0.19,-0.51,0.31
2022-02-17 5:46:49.5320 p.m.,-0.48,-1.29,-0.17,0.22,-0.4,0.25
2022-02-17 5:46:49.5420 p.m.,-0.48,-1.29,-0.17,0.25,-0.22,0.2
2022-02-17 5:46:49.5520 p.m.,-0.26,-1.19,-0.87,0.25,-0.22,0.2
2022-02-17 5:46:49.5620 p.m.,-0.06,-1.08,-1.27,0.29,0.12,0.09
2022-02-17 5:46:49.5720 p.m.,-0.08,-1.12,-1.3,0.34,0.19,0.05
2022-02-17 5:46:49.5820 p.m.,-0.22,-1.17,-1.05,0.41,0.22,0.04
2022-02-17 5:46:49.5930 p.m.,-0.38,-1.13,-0.77,0.49,0.25,0.05
2022-02-17 5:46:49.6020 p.m.,-0.52,-1.05,-0.59,0.49,0.25,0.05
2022-02-17 5:46:49.6130 p.m.,-0.45,-0.85,-0.48,0.5,0.34,0.11
2022-02-17 5:46:49.6220 p.m.,-0.45,-0.85,-0.48,0.43,0.42,0.15
2022-02-17 5:46:49.6320 p.m.,-0.31,-0.65,-0.4,0.43,0.42,0.15
2022-02-17 5:46:49.6430 p.m.,-0.37,-0.62,-0.21,0.21,0.52,0.25
2022-02-17 5:46:49.6520 p.m.,-0.37,-0.62,-0.21,0.1,0.54,0.31
2022-02-17 5:46:49.6610 p.m.,-0.53,-0.77,0.36,0.01,0.53,0.36
2022-02-17 5:46:49.6710 p.m.,-0.53,-0.77,0.36,-0.05,0.47,0.39
2022-02-17 5:46:49.6820 p.m.,-0.58,-0.91,0.66,-0.06,0.39,0.42
2022-02-17 5:46:49.6920 p.m.,-0.64,-1.12,0.95,-0.02,0.29,0.41
2022-02-17 5:46:49.7030 p.m.,-0.68,-1.51,1.03,0.03,0.21,0.4
2022-02-17 5:46:49.7130 p.m.,-0.75,-1.51,1.03,0.08,0.18,0.39
2022-02-17 5:46:49.7230 p.m.,-0.7,-1.51,0.46,0.11,0.19,0.4
2022-02-17 5:46:49.7330 p.m.,-0.67,-1.33,0.18,0.13,0.19,0.42
2022-02-17 5:46:49.7430 p.m.,-0.65,-1.18,-0.1,0.14,0.17,0.43
2022-02-17 5:46:49.7530 p.m.,-0.65,-1.18,-0.1,0.14,0.17,0.43
2022-02-17 5:46:49.7640 p.m.,-0.65,-1.04,-0.35,0.14,0.13,0.46
2022-02-17 5:46:49.7730 p.m.,-0.6,-0.87,-0.67,0.11,0.12,0.47
2022-02-17 5:46:49.7830 p.m.,-0.5,-0.73,-1.02,0.07,0.14,0.48
2022-02-17 5:46:49.7930 p.m.,-0.43,-0.58,-1.3,0.03,0.17,0.5
2022-02-17 5:46:49.8030 p.m.,-0.36,-0.26,-1.65,-0.03,0.2,0.53
2022-02-17 5:46:49.8140 p.m.,-0.36,-0.26,-1.65,-0.09,0.22,0.56
2022-02-17 5:46:49.8230 p.m.,-0.37,0.02,-1.64,-0.13,0.24,0.6
2022-02-17 5:46:49.8340 p.m.,-0.37,0.02,-1.64,-0.13,0.24,0.6
2022-02-17 5:46:49.8440 p.m.,-0.42,0.13,-1.52,-0.15,0.21,0.66
2022-02-17 5:46:49.8540 p.m.,-0.42,0.2,-1.33,-0.15,0.21,0.66
2022-02-17 5:46:49.8640 p.m.,-0.43,0.2,-1.12,-0.11,0.21,0.69
2022-02-17 5:46:49.8740 p.m.,-0.43,0.2,-1.12,-0.11,0.21,0.69
2022-02-17 5:46:49.8840 p.m.,-0.35,0.26,-1.1,-0.06,0.29,0.7
2022-02-17 5:46:49.8940 p.m.,-0.32,0.42,-0.99,-0.05,0.32,0.73
2022-02-17 5:46:49.9040 p.m.,-0.32,0.42,-0.99,-0.05,0.32,0.73
2022-02-17 5:46:49.9140 p.m.,-0.32,0.55,-0.83,0.01,0.33,0.77
2022-02-17 5:46:49.9240 p.m.,-0.31,0.65,-0.68,0.03,0.33,0.79
2022-02-17 5:46:49.9340 p.m.,-0.31,0.65,-0.68,0.02,0.36,0.81
2022-02-17 5:46:49.9440 p.m.,-0.24,0.68,-0.68,-0.01,0.4,0.84
2022-02-17 5:46:49.9540 p.m.,-0.13,0.72,-0.66,-0.05,0.44,0.86
2022-02-17 5:46:49.9640 p.m.,-0.06,0.68,-0.53,-0.07,0.47,0.87
2022-02-17 5:46:49.9740 p.m.,-0.17,0.37,0.15,-0.06,0.47,0.89
2022-02-17 5:46:49.9840 p.m.,-0.24,0.26,0.55,0,0.43,0.91
2022-02-17 5:46:49.9940 p.m.,-0.28,0.08,0.87,0.1,0.39,0.92
2022-02-17 5:46:50.0040 p.m.,-0.25,-0.08,1.05,0.19,0.37,0.92
2022-02-17 5:46:50.0140 p.m.,-0.1,-0.17,1.14,0.27,0.39,0.9
2022-02-17 5:46:50.0240 p.m.,-0.1,-0.17,1.14,0.32,0.44,0.88
2022-02-17 5:46:50.0340 p.m.,0.04,-0.22,1.16,0.3,0.52,0.86
2022-02-17 5:46:50.0450 p.m.,0.05,-0.18,1.32,0.23,0.58,0.83
2022-02-17 5:46:50.0550 p.m.,0.05,-0.18,1.32,0.15,0.57,0.82
2022-02-17 5:46:50.0640 p.m.,-0.09,-0.22,1.66,0.14,0.48,0.82
2022-02-17 5:46:50.0740 p.m.,-0.55,-0.22,2.5,0.2,0.38,0.82
2022-02-17 5:46:50.0850 p.m.,-0.66,-0.13,2.45,0.32,0.33,0.82
2022-02-17 5:46:50.0950 p.m.,-0.66,-0.13,2.45,0.46,0.34,0.83
2022-02-17 5:46:50.1050 p.m.,-0.72,-0.01,2.2,0.46,0.34,0.83
2022-02-17 5:46:50.1150 p.m.,-0.76,0.18,1.53,0.54,0.55,0.91
2022-02-17 5:46:50.1250 p.m.,-0.76,0.18,1.53,0.49,0.63,0.97
2022-02-17 5:46:50.1350 p.m.,-0.8,0.36,1.41,0.4,0.66,1.03
2022-02-17 5:46:50.1450 p.m.,-0.86,0.47,1.38,0.25,0.67,1.09
2022-02-17 5:46:50.1550 p.m.,-0.91,0.51,1.28,0.08,0.68,1.16
2022-02-17 5:46:50.1650 p.m.,-0.89,0.44,1.15,-0.11,0.67,1.22
2022-02-17 5:46:50.1750 p.m.,-0.77,0.3,0.93,-0.29,0.63,1.27
2022-02-17 5:46:50.1850 p.m.,-0.77,0.3,0.93,-0.46,0.57,1.31
2022-02-17 5:46:50.1950 p.m.,-0.8,-0.09,0.82,-0.56,0.51,1.32
2022-02-17 5:46:50.2050 p.m.,-0.8,-0.36,0.59,-0.59,0.5,1.29
2022-02-17 5:46:50.2150 p.m.,-0.87,-0.63,0.35,-0.53,0.51,1.25
2022-02-17 5:46:50.2240 p.m.,-0.87,-0.63,0.35,-0.53,0.51,1.25
2022-02-17 5:46:50.2360 p.m.,-0.99,-0.82,0.15,-0.22,0.56,1.17
2022-02-17 5:46:50.2450 p.m.,-1.08,-1.12,-0.03,-0.03,0.55,1.11
2022-02-17 5:46:50.2550 p.m.,-1.14,-1.12,-0.03,-0.03,0.55,1.11
2022-02-17 5:46:50.2650 p.m.,-1.21,-1.26,-0.16,0.37,0.52,0.98
2022-02-17 5:46:50.2760 p.m.,-1.13,-1.3,-0.25,0.56,0.52,0.91
2022-02-17 5:46:50.2850 p.m.,-1.14,-1.19,-0.59,0.68,0.55,0.88
2022-02-17 5:46:50.2960 p.m.,-1,-0.85,-0.8,0.71,0.61,0.89
2022-02-17 5:46:50.3050 p.m.,-1,-0.85,-0.8,0.68,0.67,0.9
2022-02-17 5:46:50.3160 p.m.,-0.96,-0.37,-0.96,0.59,0.73,0.93
2022-02-17 5:46:50.3250 p.m.,-0.96,-0.37,-0.96,0.44,0.81,1
2022-02-17 5:46:50.3360 p.m.,-1.13,-0.05,-0.89,0.26,0.85,1.1
2022-02-17 5:46:50.3460 p.m.,-1.3,0.01,-0.65,0.04,0.87,1.22
2022-02-17 5:46:50.3570 p.m.,-1.4,-0.01,-0.24,-0.22,0.84,1.33
2022-02-17 5:46:50.3660 p.m.,-1.49,-0.22,0.34,-0.47,0.75,1.4
2022-02-17 5:46:50.3760 p.m.,-1.63,-0.57,0.87,-0.65,0.62,1.44
2022-02-17 5:46:50.3860 p.m.,-1.63,-0.57,0.87,-0.73,0.47,1.45
2022-02-17 5:46:50.3960 p.m.,-1.59,-0.98,1.35,-0.68,0.31,1.41
2022-02-17 5:46:50.4060 p.m.,-1.59,-0.98,1.35,-0.68,0.31,1.41
2022-02-17 5:46:50.4160 p.m.,-1.61,-1.23,1.26,-0.32,0.12,1.25
2022-02-17 5:46:50.4260 p.m.,-1.53,-1.34,0.93,-0.1,0.18,1.16
2022-02-17 5:46:50.4360 p.m.,-1.33,-1.27,0.34,0.1,0.33,1.09
2022-02-17 5:46:50.4460 p.m.,-1.13,-1.01,-0.38,0.26,0.51,1.06
2022-02-17 5:46:50.4560 p.m.,-0.94,-0.67,-1.01,0.37,0.65,1.04
2022-02-17 5:46:50.4660 p.m.,-0.82,-0.31,-1.26,0.37,0.65,1.04
2022-02-17 5:46:50.4770 p.m.,-0.86,0.19,-1.04,0.43,0.64,1.02
2022-02-17 5:46:50.4860 p.m.,-0.86,0.19,-1.04,0.37,0.55,1.02
2022-02-17 5:46:50.4970 p.m.,-0.87,0.4,-0.89,0.28,0.43,1.04
2022-02-17 5:46:50.5060 p.m.,-0.87,0.63,-0.83,0.17,0.34,1.06
2022-02-17 5:46:50.5170 p.m.,-0.89,0.79,-0.95,0.08,0.3,1.1
2022-02-17 5:46:50.5260 p.m.,-0.84,0.97,-1.12,0.02,0.31,1.15
2022-02-17 5:46:50.5370 p.m.,-0.83,1.1,-1.27,-0.01,0.38,1.21
2022-02-17 5:46:50.5460 p.m.,-0.85,1.2,-1.43,-0.04,0.45,1.24
2022-02-17 5:46:50.5560 p.m.,-0.8,1.24,-1.51,-0.07,0.49,1.23
2022-02-17 5:46:50.5660 p.m.,-0.83,1.1,-1.36,-0.11,0.48,1.2
2022-02-17 5:46:50.5770 p.m.,-0.87,0.91,-1.05,-0.11,0.48,1.2
2022-02-17 5:46:50.5870 p.m.,-0.91,0.79,-0.72,-0.17,0.38,1.12
2022-02-17 5:46:50.5970 p.m.,-0.96,0.7,-0.42,-0.17,0.38,1.12
2022-02-17 5:46:50.6070 p.m.,-1.06,0.58,-0.22,-0.1,0.28,1.04
2022-02-17 5:46:50.6170 p.m.,-1.14,0.56,-0.15,-0.1,0.28,1.04
2022-02-17 5:46:50.6270 p.m.,-1.13,0.64,-0.24,0.04,0.3,0.96
2022-02-17 5:46:50.6370 p.m.,-1.08,0.64,-0.35,0.08,0.3,0.91
2022-02-17 5:46:50.6460 p.m.,-1.02,0.58,-0.38,0.1,0.29,0.86
2022-02-17 5:46:50.6570 p.m.,-0.9,0.61,-0.4,0.12,0.25,0.81
2022-02-17 5:46:50.6670 p.m.,-0.78,0.69,-0.39,0.12,0.25,0.81
2022-02-17 5:46:50.6770 p.m.,-0.6,0.83,-0.47,0.16,0.19,0.73
2022-02-17 5:46:50.6870 p.m.,-0.6,0.95,-0.51,0.18,0.16,0.7
2022-02-17 5:46:50.6970 p.m.,-0.46,0.95,-0.51,0.17,0.14,0.67
2022-02-17 5:46:50.7070 p.m.,-0.31,1.05,-0.34,0.14,0.12,0.65
2022-02-17 5:46:50.7170 p.m.,-0.31,1.05,-0.34,0.12,0.06,0.62
2022-02-17 5:46:50.7270 p.m.,-0.28,1.07,-0.1,0.11,-0.01,0.6
2022-02-17 5:46:50.7370 p.m.,-0.33,1.03,0.16,0.12,-0.06,0.59
2022-02-17 5:46:50.7470 p.m.,-0.32,1.01,0.37,0.18,-0.08,0.57
2022-02-17 5:46:50.7570 p.m.,-0.29,1.01,0.56,0.27,-0.06,0.54
2022-02-17 5:46:50.7670 p.m.,-0.32,0.85,0.76,0.34,-0.02,0.52
2022-02-17 5:46:50.7780 p.m.,-0.32,0.85,0.76,0.39,0,0.51
2022-02-17 5:46:50.7870 p.m.,-0.25,0.88,1.03,0.4,-0.06,0.5
2022-02-17 5:46:50.7980 p.m.,-0.23,0.91,1.39,0.41,-0.15,0.5
2022-02-17 5:46:50.8070 p.m.,0.04,1.23,1.95,0.43,-0.26,0.5
2022-02-17 5:46:50.8180 p.m.,0.04,1.23,1.95,0.42,-0.3,0.53
2022-02-17 5:46:50.8280 p.m.,0.22,1.4,1.82,0.36,-0.28,0.55
2022-02-17 5:46:50.8370 p.m.,0.47,1.56,1.52,0.26,-0.19,0.57
2022-02-17 5:46:50.8460 p.m.,0.58,1.66,1.13,0.11,-0.06,0.61
2022-02-17 5:46:50.8570 p.m.,0.58,1.66,1.13,-0.09,0.09,0.65
2022-02-17 5:46:50.8680 p.m.,0.48,1.66,1.09,-0.33,0.2,0.69
2022-02-17 5:46:50.8780 p.m.,0.16,1.46,1.31,-0.54,0.19,0.74
2022-02-17 5:46:50.8880 p.m.,-0.24,1.14,1.85,-0.59,0.09,0.78
2022-02-17 5:46:50.8980 p.m.,-0.65,0.67,2.53,-0.48,-0.07,0.8
2022-02-17 5:46:50.9080 p.m.,-1.06,0.09,2.85,-0.3,-0.26,0.78
2022-02-17 5:46:50.9180 p.m.,-1.39,-1.05,2.76,-0.04,-0.49,0.68
2022-02-17 5:46:50.9280 p.m.,-1.39,-1.05,2.76,0.18,-0.57,0.61
2022-02-17 5:46:50.9380 p.m.,-1.14,-1.49,1.33,0.34,-0.54,0.55
2022-02-17 5:46:50.9480 p.m.,-0.95,-1.35,0.43,0.46,-0.46,0.51
2022-02-17 5:46:50.9590 p.m.,-0.79,-1.28,-0.27,0.55,-0.35,0.47
2022-02-17 5:46:50.9680 p.m.,-0.79,-1.28,-0.27,0.58,-0.19,0.44
2022-02-17 5:46:50.9780 p.m.,-0.61,-1.11,-0.79,0.58,-0.08,0.41
2022-02-17 5:46:50.9880 p.m.,-0.41,-1,-1.06,0.58,-0.08,0.41
2022-02-17 5:46:50.9990 p.m.,-0.32,-0.98,-1.08,0.54,0.05,0.33
2022-02-17 5:46:51.0080 p.m.,-0.33,-0.87,-1.03,0.53,0.11,0.31
2022-02-17 5:46:51.0190 p.m.,-0.34,-0.74,-1.02,0.52,0.18,0.32
2022-02-17 5:46:51.0290 p.m.,-0.34,-0.74,-1.02,0.52,0.18,0.32
2022-02-17 5:46:51.0380 p.m.,-0.35,-0.58,-1.06,0.413989723,0.44,0.44
2022-02-17 5:46:51.0490 p.m.,-0.34,-0.28,-0.85,0.32,0.54,0.52
2022-02-17 5:46:51.0590 p.m.,-0.34,-0.28,-0.85,0.19,0.56,0.59
2022-02-17 5:46:51.0690 p.m.,-0.42,-0.32,-0.43,0.03,0.52,0.64
2022-02-17 5:46:51.0790 p.m.,-0.53,-0.45,0.14,-0.11,0.45,0.68
2022-02-17 5:46:51.0890 p.m.,-0.7,-0.63,0.61,-0.22,0.37,0.72
2022-02-17 5:46:51.0990 p.m.,-0.78,-0.75,0.87,-0.22,0.37,0.72
2022-02-17 5:46:51.1090 p.m.,-0.92,-1.04,1.45,-0.2,0.14,0.75
2022-02-17 5:46:51.1190 p.m.,-0.92,-1.04,1.45,-0.05,0.04,0.73
2022-02-17 5:46:51.1290 p.m.,-1.01,-1.24,1.47,0.16,-0.01,0.7
2022-02-17 5:46:51.1390 p.m.,-0.76,-1.33,0.8,0.38,0.02,0.65
2022-02-17 5:46:51.1490 p.m.,-0.64,-1.3,0.2,0.54,0.12,0.59
2022-02-17 5:46:51.1590 p.m.,-0.64,-1.3,0.2,0.54,0.12,0.59
2022-02-17 5:46:51.1690 p.m.,-0.37,-0.86,-0.8,0.64,0.34,0.56
2022-02-17 5:46:51.1790 p.m.,-0.37,-0.86,-0.8,0.58,0.36,0.58
2022-02-17 5:46:51.1890 p.m.,-0.36,-0.57,-0.97,0.47,0.33,0.61
2022-02-17 5:46:51.1990 p.m.,-0.37,-0.26,-1.04,0.33,0.25,0.63
2022-02-17 5:46:51.2090 p.m.,-0.39,-0.21,-1.11,0.18,0.18,0.65
2022-02-17 5:46:51.2190 p.m.,-0.39,-0.21,-1.11,0.06,0.14,0.68
2022-02-17 5:46:51.2300 p.m.,-0.39,-0.15,-1.25,0,0.15,0.71
2022-02-17 5:46:51.2390 p.m.,-0.38,-0.07,-1.41,-0.01,0.21,0.72
2022-02-17 5:46:51.2490 p.m.,-0.36,-0.04,-1.68,0.04,0.28,0.73
2022-02-17 5:46:51.2600 p.m.,-0.36,-0.04,-1.68,0.09,0.37,0.73
2022-02-17 5:46:51.2700 p.m.,-0.37,-0.06,-1.72,0.09,0.37,0.73
2022-02-17 5:46:51.2800 p.m.,-0.43,0.06,-1.66,0.15,0.5,0.72
2022-02-17 5:46:51.2900 p.m.,-0.43,0.06,-1.66,0.15,0.51,0.73
2022-02-17 5:46:51.2990 p.m.,-0.52,0.21,-1.47,0.13,0.52,0.74
2022-02-17 5:46:51.3100 p.m.,-0.532707658,0.3,-1.36,0.089960515,0.51,0.75
2022-02-17 5:46:51.3200 p.m.,-0.589276985,0.31,-1.22,0.07,0.49,0.76
2022-02-17 5:46:51.3300 p.m.,-0.63,0.29,-1.1,0.09,0.47,0.76
2022-02-17 5:46:51.3400 p.m.,-0.63,0.29,-1.1,0.11,0.47,0.76
2022-02-17 5:46:51.3500 p.m.,-0.53,0.44,-1.08,0.11,0.47,0.76
2022-02-17 5:46:51.3610 p.m.,-0.44,0.53,-1.07,0.14,0.53,0.79
2022-02-17 5:46:51.3700 p.m.,-0.44,0.53,-1.07,0.15,0.55,0.81
2022-02-17 5:46:51.3800 p.m.,-0.39,0.56,-0.99,0.15,0.55,0.81
2022-02-17 5:46:51.3900 p.m.,-0.29,0.57,-0.88,0.09,0.6,0.86
2022-02-17 5:46:51.4000 p.m.,-0.16,0.53,-0.54,0.04,0.63,0.88
2022-02-17 5:46:51.4100 p.m.,-0.16,0.53,-0.54,0,0.65,0.9
2022-02-17 5:46:51.4200 p.m.,-0.17,0.36,0.06,-0.01,0.64,0.92
2022-02-17 5:46:51.4300 p.m.,-0.17,0.36,0.06,0.04,0.61,0.92
2022-02-17 5:46:51.4400 p.m.,-0.26,0.06,0.8,0.13,0.57,0.92
2022-02-17 5:46:51.4500 p.m.,-0.26,0.06,0.8,0.22,0.56,0.9
2022-02-17 5:46:51.4600 p.m.,-0.19,-0.04,0.97,0.27,0.57,0.89
2022-02-17 5:46:51.4700 p.m.,0.03,-0.04,1.17,0.3,0.62,0.88
2022-02-17 5:46:51.4810 p.m.,0.03,-0.04,1.17,0.28,0.7,0.87
2022-02-17 5:46:51.4910 p.m.,0.14,0.17,1.43,0.22,0.75,0.88
2022-02-17 5:46:51.5010 p.m.,0.14,0.17,1.43,0.13,0.76,0.9
2022-02-17 5:46:51.5110 p.m.,-0.02,0.61,2.18,0.04,0.76,0.95
2022-02-17 5:46:51.5210 p.m.,-0.02,0.61,2.18,-0.01,0.73,1.01
2022-02-17 5:46:51.5310 p.m.,-0.49,0.72,2.75,-0.04,0.7,1.08
2022-02-17 5:46:51.5410 p.m.,-0.49,0.72,2.75,-0.04,0.67,1.12
2022-02-17 5:46:51.5510 p.m.,-0.79,0.67,2.66,-0.04,0.68,1.17
2022-02-17 5:46:51.5610 p.m.,-0.79,0.67,2.66,-0.06,0.73,1.23
2022-02-17 5:46:51.5710 p.m.,-0.87,0.66,2.42,-0.13,0.79,1.3
2022-02-17 5:46:51.5810 p.m.,-0.96,0.62,2.16,-0.25,0.8,1.4
2022-02-17 5:46:51.5910 p.m.,-1.04,0.54,2.07,-0.25,0.8,1.4
2022-02-17 5:46:51.6020 p.m.,-1.09,0.49,2.21,-0.47,0.51,1.58
2022-02-17 5:46:51.6110 p.m.,-1.16,0.26,2.38,-0.5,0.29,1.58
2022-02-17 5:46:51.6210 p.m.,-1.18,-0.69,1.84,-0.47,0.14,1.54
2022-02-17 5:46:51.6310 p.m.,-1.04,-1.01,1.11,-0.36,0.1,1.49
2022-02-17 5:46:51.6410 p.m.,-1.04,-1.01,1.11,-0.19,0.14,1.42
2022-02-17 5:46:51.6510 p.m.,-0.91,-1.2,0.39,-0.19,0.14,1.42
2022-02-17 5:46:51.6610 p.m.,-0.8,-1.31,-0.47,0.22,0.26,1.3
2022-02-17 5:46:51.6710 p.m.,-0.8,-1.31,-0.47,0.22,0.26,1.3
2022-02-17 5:46:51.6810 p.m.,-0.75,-1.2,-1.07,0.49,0.51,1.2
2022-02-17 5:46:51.6910 p.m.,-0.67,-1,-1.15,0.53,0.62,1.15
2022-02-17 5:46:51.7020 p.m.,-0.67,-1,-1.15,0.53,0.69,1.11
2022-02-17 5:46:51.7120 p.m.,-1.02,-0.79,-0.74,0.49,0.73,1.11
2022-02-17 5:46:51.7220 p.m.,-1.19,-0.51,-0.49,0.41,0.75,1.13
2022-02-17 5:46:51.7310 p.m.,-1.31,-0.29,-0.26,0.28,0.76,1.19
